sessionid,period,subject,group,profit,totalprofit,type,price,share,accept,ptprofit,satmath,satverbal,sateng,poli_liberal,tv
191017_1017,1,1,2,3,3,2,10,10,1,4,11,13,13,6,14
191017_1017,1,2,2,3,3,2,10,35,1,4,14,12,13,6,14
191017_1017,1,3,1,8,8,2,15,20,1,-1,13,13,15,5,14
191017_1017,1,4,2,4,4,1,10,35,1,3,14,14,14,3,14
191017_1017,1,5,2,0,0,2,18,10,0,0,15,14,14,6,14
191017_1017,1,6,3,0,0,2,14,10,0,0,15,14,14,4,14
191017_1017,1,7,3,0,0,1,14,19,1,7,10,13,14,5,14
191017_1017,1,8,1,-1,-1,1,15,15,1,8,15,14,13,6,14
191017_1017,1,9,2,4,4,1,10,10,1,3,14,14,14,7,14
191017_1017,1,10,3,-2,-2,1,16,25,1,9,10,15,15,3,14
191017_1017,1,11,2,7,7,2,14,15,1,0,14,14,14,5,14
191017_1017,1,12,2,0,0,1,14,15,1,7,12,13,14,4,14
191017_1017,1,13,3,3,3,2,10,22,1,4,15,10,15,5,14
191017_1017,1,14,1,8,8,2,15,15,1,-1,15,13,13,6,14
191017_1017,1,15,1,0,0,1,20,13,0,0,12,12,12,6,14
191017_1017,1,16,2,0,0,1,18,10,0,0,14,12,14,2,14
191017_1017,1,17,3,0,0,1,14,10,0,0,12,14,14,5,14
191017_1017,1,18,3,7,7,2,14,19,1,0,0,0,0,4,14
191017_1017,1,19,1,0,0,1,18,15,0,0,14,14,13,3,14
191017_1017,1,20,1,0,0,2,18,15,0,0,14,14,14,7,14
191017_1017,1,21,1,0,0,2,20,13,0,0,11,13,14,3,14
191017_1017,1,22,1,-1,-1,1,15,20,1,8,14,14,15,2,14
191017_1017,1,23,3,4,4,1,10,22,1,3,12,14,14,5,14
191017_1017,1,24,3,9,9,2,16,25,1,-2,14,14,15,3,14
191017_1017,2,1,2,9.5,12.5,2,10,10,1,-9,11,13,13,6,1
191017_1017,2,2,2,-0.5,2.5,2,0,11,1,1,14,12,13,6,1
191017_1017,2,3,1,13.5,21.5,2,14,16,1,-13,13,13,15,5,1
191017_1017,2,4,2,-11,-7,1,12,30,1,11.5,14,14,14,3,1
191017_1017,2,5,2,9.5,9.5,2,10,13,1,-9,15,14,14,6,1
191017_1017,2,6,3,9.5,9.5,2,10,30,1,-9,15,14,14,4,1
191017_1017,2,7,3,-13,-13,1,14,17,1,13.5,10,13,14,5,1
191017_1017,2,8,1,-13,-14,1,14,15,1,13.5,15,14,13,6,1
191017_1017,2,9,2,-9,-5,1,10,10,1,9.5,14,14,14,7,1
191017_1017,2,10,3,-9,-11,1,10,30,1,9.5,10,15,15,3,1
191017_1017,2,11,2,11.5,18.5,2,12,30,1,-11,14,14,14,5,1
191017_1017,2,12,2,-9,-9,1,10,13,1,9.5,12,13,14,4,1
191017_1017,2,13,3,0.5,3.5,2,1,22,1,0,15,10,15,5,1
191017_1017,2,14,1,0,8,2,15,10,0,0,15,13,13,6,1
191017_1017,2,15,1,-13,-13,1,14,16,1,13.5,12,12,12,6,1
191017_1017,2,16,2,1,1,1,0,11,1,-0.5,14,12,14,2,1
191017_1017,2,17,3,0,0,1,13,10,0,0,12,14,14,5,1
191017_1017,2,18,3,0,7,2,13,10,0,0,0,0,0,4,1
191017_1017,2,19,1,0,0,1,15,10,0,0,14,14,13,3,1
191017_1017,2,20,1,13.5,13.5,2,14,15,1,-13,14,14,14,7,1
191017_1017,2,21,1,9.5,9.5,2,10,15,1,-9,11,13,14,3,1
191017_1017,2,22,1,-9,-10,1,10,15,1,9.5,14,14,15,2,1
191017_1017,2,23,3,0,4,1,1,22,1,0.5,12,14,14,5,1
191017_1017,2,24,3,13.5,22.5,2,14,17,1,-13,14,14,15,3,1
191017_1017,3,1,2,0,12.5,2,18,10,0,0,11,13,13,6,24
191017_1017,3,2,2,12,14.5,2,24,30,1,0,14,12,13,6,24
191017_1017,3,3,1,0,21.5,2,25,5,0,0,13,13,15,5,24
191017_1017,3,4,2,0,-7,1,24,30,1,12,14,14,14,3,24
191017_1017,3,5,2,0,9.5,2,20,10,0,0,15,14,14,6,24
191017_1017,3,6,3,2,11.5,2,14,20,1,10,15,14,14,4,24
191017_1017,3,7,3,0,-13,1,16,15,0,0,10,13,14,5,24
191017_1017,3,8,1,0,-14,1,19,15,0,0,15,14,13,6,24
191017_1017,3,9,2,0,-5,1,20,10,0,0,14,14,14,7,24
191017_1017,3,10,3,10,-1,1,14,20,1,2,10,15,15,3,24
191017_1017,3,11,2,0,18.5,2,16,10,0,0,14,14,14,5,24
191017_1017,3,12,2,0,-9,1,16,10,0,0,12,13,14,4,24
191017_1017,3,13,3,0,3.5,2,20,16,0,0,15,10,15,5,24
191017_1017,3,14,1,0,8,2,15,8,0,0,15,13,13,6,24
191017_1017,3,15,1,0,-13,1,15,8,0,0,12,12,12,6,24
191017_1017,3,16,2,0,1,1,18,10,0,0,14,12,14,2,24
191017_1017,3,17,3,0,0,1,24,10,0,0,12,14,14,5,24
191017_1017,3,18,3,0,7,2,16,15,0,0,0,0,0,4,24
191017_1017,3,19,1,0,0,1,14,10,0,0,14,14,13,3,24
191017_1017,3,20,1,0,13.5,2,19,15,0,0,14,14,14,7,24
191017_1017,3,21,1,0,9.5,2,14,10,0,0,11,13,14,3,24
191017_1017,3,22,1,0,-10,1,25,5,0,0,14,14,15,2,24
191017_1017,3,23,3,0,4,1,20,16,0,0,12,14,14,5,24
191017_1017,3,24,3,0,22.5,2,24,10,0,0,14,14,15,3,24
191017_1017,4,1,2,0,12.5,2,20,14,0,0,11,13,13,6,29
191017_1017,4,2,2,0,14.5,2,29,11,0,0,14,12,13,6,29
191017_1017,4,3,1,0,21.5,2,19,10,0,0,13,13,15,5,29
191017_1017,4,4,2,12,5,1,17,18,1,2.5,14,14,14,3,29
191017_1017,4,5,2,0,9.5,2,20,10,0,0,15,14,14,6,29
191017_1017,4,6,3,0.5,12,2,15,28,1,14,15,14,14,4,29
191017_1017,4,7,3,0,-13,1,18,16,0,0,10,13,14,5,29
191017_1017,4,8,1,13,-1,1,16,18,1,1.5,15,14,13,6,29
191017_1017,4,9,2,0,-5,1,20,10,0,0,14,14,14,7,29
191017_1017,4,10,3,0,-1,1,19,18,0,0,10,15,15,3,29
191017_1017,4,11,2,2.5,21,2,17,18,1,12,14,14,14,5,29
191017_1017,4,12,2,0,-9,1,20,14,0,0,12,13,14,4,29
191017_1017,4,13,3,0,3.5,2,18,16,0,0,15,10,15,5,29
191017_1017,4,14,1,0,8,2,16,14,0,0,15,13,13,6,29
191017_1017,4,15,1,0,-13,1,16,14,0,0,12,12,12,6,29
191017_1017,4,16,2,0,1,1,29,11,0,0,14,12,14,2,29
191017_1017,4,17,3,0,0,1,16,10,0,0,12,14,14,5,29
191017_1017,4,18,3,0,7,2,16,10,0,0,0,0,0,4,29
191017_1017,4,19,1,0,0,1,17,13,0,0,14,14,13,3,29
191017_1017,4,20,1,0,13.5,2,17,13,0,0,14,14,14,7,29
191017_1017,4,21,1,1.5,11,2,16,18,1,13,11,13,14,3,29
191017_1017,4,22,1,0,-10,1,19,10,0,0,14,14,15,2,29
191017_1017,4,23,3,14,18,1,15,28,1,0.5,12,14,14,5,29
191017_1017,4,24,3,0,22.5,2,19,18,0,0,14,14,15,3,29
191017_1017,5,1,2,3,15.5,2,9,15,1,3,11,13,13,6,12
191017_1017,5,2,2,0,14.5,2,12,10,0,0,14,12,13,6,12
191017_1017,5,3,1,7,28.5,2,13,18,1,-1,13,13,15,5,12
191017_1017,5,4,2,-4,1,1,16,20,1,10,14,14,14,3,12
191017_1017,5,5,2,10,19.5,2,16,20,1,-4,15,14,14,6,12
191017_1017,5,6,3,10,22,2,16,25,1,-4,15,14,14,4,12
191017_1017,5,7,3,0,-13,1,19,18,0,0,10,13,14,5,12
191017_1017,5,8,1,-1,-2,1,13,18,1,7,15,14,13,6,12
191017_1017,5,9,2,0,-5,1,12,10,0,0,14,14,14,7,12
191017_1017,5,10,3,0,-1,1,12,20,1,6,10,15,15,3,12
191017_1017,5,11,2,0,21,2,15,12,0,0,14,14,14,5,12
191017_1017,5,12,2,3,-6,1,9,15,1,3,12,13,14,4,12
191017_1017,5,13,3,6,9.5,2,12,20,1,0,15,10,15,5,12
191017_1017,5,14,1,9,17,2,15,15,1,-3,15,13,13,6,12
191017_1017,5,15,1,-3,-16,1,15,15,1,9,12,12,12,6,12
191017_1017,5,16,2,0,1,1,15,12,0,0,14,12,14,2,12
191017_1017,5,17,3,0,0,1,12,13,1,6,12,14,14,5,12
191017_1017,5,18,3,6,13,2,12,13,1,0,0,0,0,4,12
191017_1017,5,19,1,0,0,1,12,15,1,6,14,14,13,3,12
191017_1017,5,20,1,0,13.5,2,16,15,0,0,14,14,14,7,12
191017_1017,5,21,1,6,17,2,12,15,1,0,11,13,14,3,12
191017_1017,5,22,1,0,-10,1,16,15,0,0,14,14,15,2,12
191017_1017,5,23,3,-4,14,1,16,25,1,10,12,14,14,5,12
191017_1017,5,24,3,0,22.5,2,19,18,0,0,14,14,15,3,12
191017_1017,6,1,2,0,15.5,2,15,1,0,0,11,13,13,6,19
191017_1017,6,2,2,0.5,15,2,10,13,1,9,14,12,13,6,19
191017_1017,6,3,1,0,28.5,2,16,13,0,0,13,13,15,5,19
191017_1017,6,4,2,1,2,1,18,18,1,8.5,14,14,14,3,19
191017_1017,6,5,2,8.5,28,2,18,18,1,1,15,14,14,6,19
191017_1017,6,6,3,6.5,28.5,2,16,18,1,3,15,14,14,4,19
191017_1017,6,7,3,6,-7,1,13,17,1,3.5,10,13,14,5,19
191017_1017,6,8,1,5,3,1,14,17,1,4.5,15,14,13,6,19
191017_1017,6,9,2,0,-5,1,15,1,0,0,14,14,14,7,19
191017_1017,6,10,3,3,2,1,16,18,1,6.5,10,15,15,3,19
191017_1017,6,11,2,3.5,24.5,2,13,15,1,6,14,14,14,5,19
191017_1017,6,12,2,6,0,1,13,15,1,3.5,12,13,14,4,19
191017_1017,6,13,3,3.5,13,2,13,17,1,6,15,10,15,5,19
191017_1017,6,14,1,4.5,21.5,2,14,17,1,5,15,13,13,6,19
191017_1017,6,15,1,0,-16,1,15,14,0,0,12,12,12,6,19
191017_1017,6,16,2,9,10,1,10,13,1,0.5,14,12,14,2,19
191017_1017,6,17,3,0,0,1,16,12,0,0,12,14,14,5,19
191017_1017,6,18,3,0,13,2,16,12,0,0,0,0,0,4,19
191017_1017,6,19,1,0,0,1,16,13,0,0,14,14,13,3,19
191017_1017,6,20,1,0,13.5,2,15,14,0,0,14,14,14,7,19
191017_1017,6,21,1,0,17,2,16,15,0,0,11,13,14,3,19
191017_1017,6,22,1,0,-10,1,16,15,0,0,14,14,15,2,19
191017_1017,6,23,3,1,15,1,18,18,1,8.5,12,14,14,5,19
191017_1017,6,24,3,8.5,31,2,18,18,1,1,14,14,15,3,19
191017_1017,7,1,2,0,15.5,2,11,0,0,0,11,13,13,6,14
191017_1017,7,2,2,3,18,2,10,15,1,4,14,12,13,6,14
191017_1017,7,3,1,0,28.5,2,13,12,0,0,13,13,15,5,14
191017_1017,7,4,2,4,6,1,10,15,1,3,14,14,14,3,14
191017_1017,7,5,2,0,28,2,16,15,0,0,15,14,14,6,14
191017_1017,7,6,3,7,35.5,2,14,20,1,0,15,14,14,4,14
191017_1017,7,7,3,2,-5,1,12,17,1,5,10,13,14,5,14
191017_1017,7,8,1,1,4,1,13,16,1,6,15,14,13,6,14
191017_1017,7,9,2,0,-5,1,11,0,0,0,14,14,14,7,14
191017_1017,7,10,3,4,6,1,10,17,1,3,10,15,15,3,14
191017_1017,7,11,2,5,29.5,2,12,13,1,2,14,14,14,5,14
191017_1017,7,12,2,0,0,1,16,15,0,0,12,13,14,4,14
191017_1017,7,13,3,5,18,2,12,17,1,2,15,10,15,5,14
191017_1017,7,14,1,8,29.5,2,15,15,1,-1,15,13,13,6,14
191017_1017,7,15,1,-1,-17,1,15,15,1,8,12,12,12,6,14
191017_1017,7,16,2,2,12,1,12,13,1,5,14,12,14,2,14
191017_1017,7,17,3,-4,-4,1,18,20,1,11,12,14,14,5,14
191017_1017,7,18,3,3,16,2,10,17,1,4,0,0,0,4,14
191017_1017,7,19,1,0,0,1,13,12,0,0,14,14,13,3,14
191017_1017,7,20,1,6,19.5,2,13,16,1,1,14,14,14,7,14
191017_1017,7,21,1,7,24,2,14,15,1,0,11,13,14,3,14
191017_1017,7,22,1,0,-10,1,14,15,1,7,14,14,15,2,14
191017_1017,7,23,3,0,15,1,14,20,1,7,12,14,14,5,14
191017_1017,7,24,3,11,42,2,18,20,1,-4,14,14,15,3,14
191017_1017,8,1,2,2.5,18,2,8,13,1,3,11,13,13,6,11
191017_1017,8,2,2,4.5,22.5,2,10,15,1,1,14,12,13,6,11
191017_1017,8,3,1,4.5,33,2,10,14,1,1,13,13,15,5,11
191017_1017,8,4,2,-2,4,1,13,14,1,7.5,14,14,14,3,11
191017_1017,8,5,2,7.5,35.5,2,13,14,1,-2,15,14,14,6,11
191017_1017,8,6,3,8.5,44,2,14,16,1,-3,15,14,14,4,11
191017_1017,8,7,3,-3,-8,1,14,16,1,8.5,10,13,14,5,11
191017_1017,8,8,1,1,5,1,10,16,1,4.5,15,14,13,6,11
191017_1017,8,9,2,0,-5,1,14,0,0,0,14,14,14,7,11
191017_1017,8,10,3,1,7,1,10,17,1,4.5,10,15,15,3,11
191017_1017,8,11,2,0,29.5,2,14,0,0,0,14,14,14,5,11
191017_1017,8,12,2,1,1,1,10,15,1,4.5,12,13,14,4,11
191017_1017,8,13,3,6.5,24.5,2,12,22,1,-1,15,10,15,5,11
191017_1017,8,14,1,6.5,36,2,12,12,1,-1,15,13,13,6,11
191017_1017,8,15,1,-3,-20,1,14,15,1,8.5,12,12,12,6,11
191017_1017,8,16,2,3,15,1,8,13,1,2.5,14,12,14,2,11
191017_1017,8,17,3,3,-1,1,8,15,1,2.5,12,14,14,5,11
191017_1017,8,18,3,4.5,20.5,2,10,17,1,1,0,0,0,4,11
191017_1017,8,19,1,-1,-1,1,12,12,1,6.5,14,14,13,3,11
191017_1017,8,20,1,8.5,28,2,14,15,1,-3,14,14,14,7,11
191017_1017,8,21,1,4.5,28.5,2,10,16,1,1,11,13,14,3,11
191017_1017,8,22,1,1,-9,1,10,14,1,4.5,14,14,15,2,11
191017_1017,8,23,3,-1,14,1,12,22,1,6.5,12,14,14,5,11
191017_1017,8,24,3,2.5,44.5,2,8,15,1,3,14,14,15,3,11
191017_1017,9,1,2,0,18,2,13,0,0,0,11,13,13,6,17
191017_1017,9,2,2,0,22.5,2,14,10,0,0,14,12,13,6,17
191017_1017,9,3,1,3.5,36.5,2,12,14,1,5,13,13,15,5,17
191017_1017,9,4,2,0,4,1,14,10,0,0,14,14,14,3,17
191017_1017,9,5,2,3.5,39,2,12,12,1,5,15,14,14,6,17
191017_1017,9,6,3,5.5,49.5,2,14,16,1,3,15,14,14,4,17
191017_1017,9,7,3,3,-5,1,14,16,1,5.5,10,13,14,5,17
191017_1017,9,8,1,0,5,1,15,14,0,0,15,14,13,6,17
191017_1017,9,9,2,0,-5,1,13,0,0,0,14,14,14,7,17
191017_1017,9,10,3,3,10,1,14,16,1,5.5,10,15,15,3,17
191017_1017,9,11,2,0,29.5,2,14,13,0,0,14,14,14,5,17
191017_1017,9,12,2,5,6,1,12,12,1,3.5,12,13,14,4,17
191017_1017,9,13,3,0,24.5,2,15,10,0,0,15,10,15,5,17
191017_1017,9,14,1,0,36,2,12,10,0,0,15,13,13,6,17
191017_1017,9,15,1,0,-20,1,12,10,0,0,12,12,12,6,17
191017_1017,9,16,2,0,15,1,14,13,0,0,14,12,14,2,17
191017_1017,9,17,3,4,3,1,13,15,1,4.5,12,14,14,5,17
191017_1017,9,18,3,4.5,25,2,13,15,1,4,0,0,0,4,17
191017_1017,9,19,1,0,-1,1,15,10,0,0,14,14,13,3,17
191017_1017,9,20,1,0,28,2,15,14,0,0,14,14,14,7,17
191017_1017,9,21,1,0,28.5,2,15,10,0,0,11,13,14,3,17
191017_1017,9,22,1,5,-4,1,12,14,1,3.5,14,14,15,2,17
191017_1017,9,23,3,0,14,1,15,10,0,0,12,14,14,5,17
191017_1017,9,24,3,5.5,50,2,14,16,1,3,14,14,15,3,17
191017_1017,10,1,2,0,18,2,14,0,0,0,11,13,13,6,20
191017_1017,10,2,2,1,23.5,2,11,12,1,9,14,12,13,6,20
191017_1017,10,3,1,0,36.5,2,15,14,0,0,13,13,15,5,20
191017_1017,10,4,2,0,4,1,15,12,0,0,14,14,14,3,20
191017_1017,10,5,2,0,39,2,20,13,0,0,15,14,14,6,20
191017_1017,10,6,3,4,53.5,2,14,15,1,6,15,14,14,4,20
191017_1017,10,7,3,4,-1,1,16,16,1,6,10,13,14,5,20
191017_1017,10,8,1,7,12,1,13,19,1,3,15,14,13,6,20
191017_1017,10,9,2,0,-5,1,14,0,0,0,14,14,14,7,20
191017_1017,10,10,3,6,16,1,14,15,1,4,10,15,15,3,20
191017_1017,10,11,2,0,29.5,2,15,12,0,0,14,14,14,5,20
191017_1017,10,12,2,9,15,1,11,12,1,1,12,13,14,4,20
191017_1017,10,13,3,5,29.5,2,15,15,1,5,15,10,15,5,20
191017_1017,10,14,1,3,39,2,13,19,1,7,15,13,13,6,20
191017_1017,10,15,1,0,-20,1,15,14,0,0,12,12,12,6,20
191017_1017,10,16,2,0,15,1,20,13,0,0,14,12,14,2,20
191017_1017,10,17,3,5,8,1,15,15,1,5,12,14,14,5,20
191017_1017,10,18,3,0,25,2,16,14,0,0,0,0,0,4,20
191017_1017,10,19,1,0,-1,1,15,10,0,0,14,14,13,3,20
191017_1017,10,20,1,0,28,2,15,14,0,0,14,14,14,7,20
191017_1017,10,21,1,0,28.5,2,15,10,0,0,11,13,14,3,20
191017_1017,10,22,1,0,-4,1,15,14,0,0,14,14,15,2,20
191017_1017,10,23,3,0,14,1,16,14,0,0,12,14,14,5,20
191017_1017,10,24,3,6,56,2,16,16,1,4,14,14,15,3,20
191017_1017,11,1,2,-0.5,17.5,2,1,11,1,2,11,13,13,6,3
191017_1017,11,2,2,0.5,24,2,2,13,1,1,14,12,13,6,3
191017_1017,11,3,1,9.5,46,2,11,14,1,-8,13,13,15,5,3
191017_1017,11,4,2,-8,-4,1,11,12,1,9.5,14,14,14,3,3
191017_1017,11,5,2,0,39,2,14,0,0,0,15,14,14,6,3
191017_1017,11,6,3,12.5,66,2,14,24,1,-11,15,14,14,4,3
191017_1017,11,7,3,-3,-4,1,6,16,1,4.5,10,13,14,5,3
191017_1017,11,8,1,-7,5,1,10,21,1,8.5,15,14,13,6,3
191017_1017,11,9,2,0,-5,1,14,0,0,0,14,14,14,7,3
191017_1017,11,10,3,-7,9,1,10,15,1,8.5,10,15,15,3,3
191017_1017,11,11,2,9.5,39,2,11,12,1,-8,14,14,14,5,3
191017_1017,11,12,2,2,17,1,1,11,1,-0.5,12,13,14,4,3
191017_1017,11,13,3,11.5,41,2,13,15,1,-10,15,10,15,5,3
191017_1017,11,14,1,11.5,50.5,2,13,15,1,-10,15,13,13,6,3
191017_1017,11,15,1,-10,-30,1,13,15,1,11.5,12,12,12,6,3
191017_1017,11,16,2,1,16,1,2,13,1,0.5,14,12,14,2,3
191017_1017,11,17,3,-10,-2,1,13,15,1,11.5,12,14,14,5,3
191017_1017,11,18,3,4.5,29.5,2,6,16,1,-3,0,0,0,4,3
191017_1017,11,19,1,0,-1,1,13,11,0,0,14,14,13,3,3
191017_1017,11,20,1,0,28,2,13,11,0,0,14,14,14,7,3
191017_1017,11,21,1,8.5,37,2,10,21,1,-7,11,13,14,3,3
191017_1017,11,22,1,-8,-12,1,11,14,1,9.5,14,14,15,2,3
191017_1017,11,23,3,-11,3,1,14,24,1,12.5,12,14,14,5,3
191017_1017,11,24,3,8.5,64.5,2,10,15,1,-7,14,14,15,3,3
191017_1017,12,1,2,0,17.5,2,22,10,0,0,11,13,13,6,29
191017_1017,12,2,2,0,24,2,15,0,0,0,14,12,13,6,29
191017_1017,12,3,1,1.5,47.5,2,16,18,1,13,13,13,15,5,29
191017_1017,12,4,2,0,-4,1,22,10,0,0,14,14,14,3,29
191017_1017,12,5,2,0,39,2,20,10,0,0,15,14,14,6,29
191017_1017,12,6,3,0,66,2,15,14,0,0,15,14,14,4,29
191017_1017,12,7,3,0,-4,1,15,14,0,0,10,13,14,5,29
191017_1017,12,8,1,13,18,1,16,18,1,1.5,15,14,13,6,29
191017_1017,12,9,2,0,-5,1,15,0,0,0,14,14,14,7,29
191017_1017,12,10,3,0,9,1,24,14,0,0,10,15,15,3,29
191017_1017,12,11,2,0,39,2,17,13,0,0,14,14,14,5,29
191017_1017,12,12,2,0,17,1,20,10,0,0,12,13,14,4,29
191017_1017,12,13,3,0,41,2,24,14,0,0,15,10,15,5,29
191017_1017,12,14,1,0,50.5,2,15,13,0,0,15,13,13,6,29
191017_1017,12,15,1,0,-30,1,15,13,0,0,12,12,12,6,29
191017_1017,12,16,2,0,16,1,17,13,0,0,14,12,14,2,29
191017_1017,12,17,3,0,-2,1,15,10,0,0,12,14,14,5,29
191017_1017,12,18,3,0,29.5,2,15,10,0,0,0,0,0,4,29
191017_1017,12,19,1,0,-1,1,20,10,0,0,14,14,13,3,29
191017_1017,12,20,1,0,28,2,20,10,0,0,14,14,14,7,29
191017_1017,12,21,1,0,37,2,17,13,0,0,11,13,14,3,29
191017_1017,12,22,1,0,-12,1,17,13,0,0,14,14,15,2,29
191017_1017,12,23,3,0,3,1,20,17,0,0,12,14,14,5,29
191017_1017,12,24,3,0,64.5,2,20,17,0,0,14,14,15,3,29
191017_1017,13,1,2,0,17.5,2,10,0,0,0,11,13,13,6,13
191017_1017,13,2,2,3.5,27.5,2,10,12,1,3,14,12,13,6,13
191017_1017,13,3,1,0,47.5,2,18,15,0,0,13,13,15,5,13
191017_1017,13,4,2,0,-4,1,14,10,0,0,14,14,14,3,13
191017_1017,13,5,2,0,39,2,14,10,0,0,15,14,14,6,13
191017_1017,13,6,3,6.5,72.5,2,13,14,1,0,15,14,14,4,13
191017_1017,13,7,3,1,-3,1,12,16,1,5.5,10,13,14,5,13
191017_1017,13,8,1,1,19,1,12,19,1,5.5,15,14,13,6,13
191017_1017,13,9,2,0,-5,1,10,0,0,0,14,14,14,7,13
191017_1017,13,10,3,0,9,1,13,14,1,6.5,10,15,15,3,13
191017_1017,13,11,2,6.5,45.5,2,13,13,1,0,14,14,14,5,13
191017_1017,13,12,2,3,20,1,10,12,1,3.5,12,13,14,4,13
191017_1017,13,13,3,6.5,47.5,2,13,19,1,0,15,10,15,5,13
191017_1017,13,14,1,6.5,57,2,13,13,1,0,15,13,13,6,13
191017_1017,13,15,1,0,-30,1,18,15,0,0,12,12,12,6,13
191017_1017,13,16,2,0,16,1,13,13,1,6.5,14,12,14,2,13
191017_1017,13,17,3,1,-1,1,12,15,1,5.5,12,14,14,5,13
191017_1017,13,18,3,5.5,35,2,12,15,1,1,0,0,0,4,13
191017_1017,13,19,1,0,-1,1,12,9,0,0,14,14,13,3,13
191017_1017,13,20,1,5.5,33.5,2,12,19,1,1,14,14,14,7,13
191017_1017,13,21,1,0,37,2,12,9,0,0,11,13,14,3,13
191017_1017,13,22,1,0,-12,1,13,13,1,6.5,14,14,15,2,13
191017_1017,13,23,3,0,3,1,13,19,1,6.5,12,14,14,5,13
191017_1017,13,24,3,5.5,70,2,12,16,1,1,14,14,15,3,13
191017_1017,14,1,2,0,17.5,2,20,13,0,0,11,13,13,6,31
191017_1017,14,2,2,0,27.5,2,20,10,0,0,14,12,13,6,31
191017_1017,14,3,1,0,47.5,2,19,16,0,0,13,13,15,5,31
191017_1017,14,4,2,0,-4,1,20,10,0,0,14,14,14,3,31
191017_1017,14,5,2,0,39,2,16,0,0,0,15,14,14,6,31
191017_1017,14,6,3,0,72.5,2,16,15,0,0,15,14,14,4,31
191017_1017,14,7,3,0,-3,1,20,15,0,0,10,13,14,5,31
191017_1017,14,8,1,0,19,1,19,16,0,0,15,14,13,6,31
191017_1017,14,9,2,0,-5,1,16,0,0,0,14,14,14,7,31
191017_1017,14,10,3,0,9,1,25,13,0,0,10,15,15,3,31
191017_1017,14,11,2,0,45.5,2,20,13,0,0,14,14,14,5,31
191017_1017,14,12,2,0,20,1,20,13,0,0,12,13,14,4,31
191017_1017,14,13,3,0,47.5,2,16,12,0,0,15,10,15,5,31
191017_1017,14,14,1,0,57,2,16,10,0,0,15,13,13,6,31
191017_1017,14,15,1,0,-30,1,17,14,0,0,12,12,12,6,31
191017_1017,14,16,2,0,16,1,20,13,0,0,14,12,14,2,31
191017_1017,14,17,3,0,-1,1,16,15,0,0,12,14,14,5,31
191017_1017,14,18,3,0,35,2,25,13,0,0,0,0,0,4,31
191017_1017,14,19,1,0,-1,1,16,10,0,0,14,14,13,3,31
191017_1017,14,20,1,0,33.5,2,16,12,0,0,14,14,14,7,31
191017_1017,14,21,1,0,37,2,17,14,0,0,11,13,14,3,31
191017_1017,14,22,1,0,-12,1,16,12,0,0,14,14,15,2,31
191017_1017,14,23,3,0,3,1,16,12,0,0,12,14,14,5,31
191017_1017,14,24,3,0,70,2,20,15,0,0,14,14,15,3,31
191017_1017,15,1,2,0,17.5,2,25,16,0,0,11,13,13,6,37
191017_1017,15,2,2,0,27.5,2,19,0,0,0,14,12,13,6,37
191017_1017,15,3,1,0,47.5,2,22,14,0,0,13,13,15,5,37
191017_1017,15,4,2,0,-4,1,20,11,0,0,14,14,14,3,37
191017_1017,15,5,2,0,39,2,20,11,0,0,15,14,14,6,37
191017_1017,15,6,3,0.5,73,2,19,27,1,18,15,14,14,4,37
191017_1017,15,7,3,0,-3,1,19,16,0,0,10,13,14,5,37
191017_1017,15,8,1,18,37,1,19,19,1,0.5,15,14,13,6,37
191017_1017,15,9,2,0,-5,1,19,0,0,0,14,14,14,7,37
191017_1017,15,10,3,0,9,1,22,14,0,0,10,15,15,3,37
191017_1017,15,11,2,0,45.5,2,22,13,0,0,14,14,14,5,37
191017_1017,15,12,2,0,20,1,25,16,0,0,12,13,14,4,37
191017_1017,15,13,3,0,47.5,2,19,16,0,0,15,10,15,5,37
191017_1017,15,14,1,0,57,2,19,13,0,0,15,13,13,6,37
191017_1017,15,15,1,0,-30,1,22,14,0,0,12,12,12,6,37
191017_1017,15,16,2,0,16,1,22,13,0,0,14,12,14,2,37
191017_1017,15,17,3,0,-1,1,30,15,0,0,12,14,14,5,37
191017_1017,15,18,3,0,35,2,30,15,0,0,0,0,0,4,37
191017_1017,15,19,1,0,-1,1,19,13,0,0,14,14,13,3,37
191017_1017,15,20,1,0,33.5,2,20,12,0,0,14,14,14,7,37
191017_1017,15,21,1,0.5,37.5,2,19,19,1,18,11,13,14,3,37
191017_1017,15,22,1,0,-12,1,20,12,0,0,14,14,15,2,37
191017_1017,15,23,3,18,21,1,19,27,1,0.5,12,14,14,5,37
191017_1017,15,24,3,0,70,2,22,14,0,0,14,14,15,3,37
191017_1017,16,1,2,-0.5,17,2,0,18,1,1,11,13,13,6,1
191017_1017,16,2,2,-0.5,27,2,0,13,1,1,14,12,13,6,1
191017_1017,16,3,1,11.5,59,2,12,12,1,-11,13,13,15,5,1
191017_1017,16,4,2,-10,-14,1,11,13,1,10.5,14,14,14,3,1
191017_1017,16,5,2,10.5,49.5,2,11,13,1,-10,15,14,14,6,1
191017_1017,16,6,3,13.5,86.5,2,14,15,1,-13,15,14,14,4,1
191017_1017,16,7,3,-12,-15,1,13,18,1,12.5,10,13,14,5,1
191017_1017,16,8,1,-13,24,1,14,17,1,13.5,15,14,13,6,1
191017_1017,16,9,2,-10,-15,1,11,20,1,10.5,14,14,14,7,1
191017_1017,16,10,3,-7,2,1,8,14,1,7.5,10,15,15,3,1
191017_1017,16,11,2,10.5,56,2,11,20,1,-10,14,14,14,5,1
191017_1017,16,12,2,1,21,1,0,18,1,-0.5,12,13,14,4,1
191017_1017,16,13,3,12.5,60,2,13,18,1,-12,15,10,15,5,1
191017_1017,16,14,1,11.5,68.5,2,12,16,1,-11,15,13,13,6,1
191017_1017,16,15,1,-11,-41,1,12,16,1,11.5,12,12,12,6,1
191017_1017,16,16,2,1,17,1,0,13,1,-0.5,14,12,14,2,1
191017_1017,16,17,3,-13,-14,1,14,15,1,13.5,12,14,14,5,1
191017_1017,16,18,3,4.5,39.5,2,5,20,1,-4,0,0,0,4,1
191017_1017,16,19,1,-11,-12,1,12,12,1,11.5,14,14,13,3,1
191017_1017,16,20,1,9.5,43,2,10,12,1,-9,14,14,14,7,1
191017_1017,16,21,1,13.5,51,2,14,17,1,-13,11,13,14,3,1
191017_1017,16,22,1,-9,-21,1,10,12,1,9.5,14,14,15,2,1
191017_1017,16,23,3,-4,17,1,5,20,1,4.5,12,14,14,5,1
191017_1017,16,24,3,7.5,77.5,2,8,14,1,-7,14,14,15,3,1
191017_1017,17,1,2,1,18,2,3,13,1,1,11,13,13,6,4
191017_1017,17,2,2,1,28,2,3,10,1,1,14,12,13,6,4
191017_1017,17,3,1,11,70,2,13,16,1,-9,13,13,15,5,4
191017_1017,17,4,2,1,-13,1,3,10,1,1,14,14,14,3,4
191017_1017,17,5,2,10,59.5,2,12,20,1,-8,15,14,14,6,4
191017_1017,17,6,3,12,98.5,2,14,23,1,-10,15,14,14,4,4
191017_1017,17,7,3,-4,-19,1,8,17,1,6,10,13,14,5,4
191017_1017,17,8,1,-9,15,1,13,16,1,11,15,14,13,6,4
191017_1017,17,9,2,-8,-23,1,12,20,1,10,14,14,14,7,4
191017_1017,17,10,3,-4,-2,1,8,13,1,6,10,15,15,3,4
191017_1017,17,11,2,9,65,2,11,18,1,-7,14,14,14,5,4
191017_1017,17,12,2,-7,14,1,11,18,1,9,12,13,14,4,4
191017_1017,17,13,3,0,60,2,13,10,0,0,15,10,15,5,4
191017_1017,17,14,1,0,68.5,2,12,10,0,0,15,13,13,6,4
191017_1017,17,15,1,-5,-46,1,9,15,1,7,12,12,12,6,4
191017_1017,17,16,2,1,18,1,3,13,1,1,14,12,14,2,4
191017_1017,17,17,3,0,-14,1,13,10,0,0,12,14,14,5,4
191017_1017,17,18,3,6,45.5,2,8,17,1,-4,0,0,0,4,4
191017_1017,17,19,1,-6,-18,1,10,10,1,8,14,14,13,3,4
191017_1017,17,20,1,8,51,2,10,10,1,-6,14,14,14,7,4
191017_1017,17,21,1,7,58,2,9,15,1,-5,11,13,14,3,4
191017_1017,17,22,1,0,-21,1,12,10,0,0,14,14,15,2,4
191017_1017,17,23,3,-10,7,1,14,23,1,12,12,14,14,5,4
191017_1017,17,24,3,6,83.5,2,8,13,1,-4,14,14,15,3,4
191017_1017,18,1,2,0,18,2,20,0,0,0,11,13,13,6,27
191017_1017,18,2,2,1.5,29.5,2,15,15,1,12,14,12,13,6,27
191017_1017,18,3,1,0,70,2,18,10,0,0,13,13,15,5,27
191017_1017,18,4,2,0,-13,1,16,10,0,0,14,14,14,3,27
191017_1017,18,5,2,0,59.5,2,16,10,0,0,15,14,14,6,27
191017_1017,18,6,3,0,98.5,2,15,12,0,0,15,14,14,4,27
191017_1017,18,7,3,0,-19,1,14,10,0,0,10,13,14,5,27
191017_1017,18,8,1,12,27,1,15,18,1,1.5,15,14,13,6,27
191017_1017,18,9,2,0,-23,1,20,0,0,0,14,14,14,7,27
191017_1017,18,10,3,0,-2,1,15,12,0,0,10,15,15,3,27
191017_1017,18,11,2,0,65,2,16,15,0,0,14,14,14,5,27
191017_1017,18,12,2,0,14,1,16,15,0,0,12,13,14,4,27
191017_1017,18,13,3,0,60,2,14,10,0,0,15,10,15,5,27
191017_1017,18,14,1,1.5,70,2,15,18,1,12,15,13,13,6,27
191017_1017,18,15,1,0,-46,1,15,14,0,0,12,12,12,6,27
191017_1017,18,16,2,12,30,1,15,15,1,1.5,14,12,14,2,27
191017_1017,18,17,3,0,-14,1,22,10,0,0,12,14,14,5,27
191017_1017,18,18,3,0,45.5,2,22,10,0,0,0,0,0,4,27
191017_1017,18,19,1,0,-18,1,19,10,0,0,14,14,13,3,27
191017_1017,18,20,1,0,51,2,15,14,0,0,14,14,14,7,27
191017_1017,18,21,1,0,58,2,19,10,0,0,11,13,14,3,27
191017_1017,18,22,1,0,-21,1,18,10,0,0,14,14,15,2,27
191017_1017,18,23,3,0,7,1,19,7,0,0,12,14,14,5,27
191017_1017,18,24,3,0,83.5,2,19,7,0,0,14,14,15,3,27
191017_1017,19,1,2,0,18,2,3,0,0,0,11,13,13,6,6
191017_1017,19,2,2,2,31.5,2,5,15,1,1,14,12,13,6,6
191017_1017,19,3,1,0,70,2,14,11,0,0,13,13,15,5,6
191017_1017,19,4,2,0,-13,1,13,12,0,0,14,14,14,3,6
191017_1017,19,5,2,0,59.5,2,13,12,0,0,15,14,14,6,6
191017_1017,19,6,3,11,109.5,2,14,16,1,-8,15,14,14,4,6
191017_1017,19,7,3,-8,-27,1,14,16,1,11,10,13,14,5,6
191017_1017,19,8,1,-7,20,1,13,18,1,10,15,14,13,6,6
191017_1017,19,9,2,0,-23,1,3,0,0,0,14,14,14,7,6
191017_1017,19,10,3,-4,-6,1,10,13,1,7,10,15,15,3,6
191017_1017,19,11,2,9,74,2,12,15,1,-6,14,14,14,5,6
191017_1017,19,12,2,-6,8,1,12,15,1,9,12,13,14,4,6
191017_1017,19,13,3,7,67,2,10,13,1,-4,15,10,15,5,6
191017_1017,19,14,1,10,80,2,13,18,1,-7,15,13,13,6,6
191017_1017,19,15,1,-4,-50,1,10,14,1,7,12,12,12,6,6
191017_1017,19,16,2,1,31,1,5,15,1,2,14,12,14,2,6
191017_1017,19,17,3,-2,-16,1,8,10,1,5,12,14,14,5,6
191017_1017,19,18,3,5,50.5,2,8,10,1,-2,0,0,0,4,6
191017_1017,19,19,1,0,-18,1,13,10,0,0,14,14,13,3,6
191017_1017,19,20,1,7,58,2,10,14,1,-4,14,14,14,7,6
191017_1017,19,21,1,0,58,2,13,10,0,0,11,13,14,3,6
191017_1017,19,22,1,0,-21,1,14,11,0,0,14,14,15,2,6
191017_1017,19,23,3,-2,5,1,8,10,1,5,12,14,14,5,6
191017_1017,19,24,3,5,88.5,2,8,10,1,-2,14,14,15,3,6
191017_1017,20,1,2,0,18,2,15,0,0,0,11,13,13,6,23
191017_1017,20,2,2,0,31.5,2,18,14,0,0,14,12,13,6,23
191017_1017,20,3,1,0,70,2,15,8,0,0,13,13,15,5,23
191017_1017,20,4,2,0,-13,1,16,10,0,0,14,14,14,3,23
191017_1017,20,5,2,0,59.5,2,16,10,0,0,15,14,14,6,23
191017_1017,20,6,3,0,109.5,2,14,12,0,0,15,14,14,4,23
191017_1017,20,7,3,0,-27,1,14,12,0,0,10,13,14,5,23
191017_1017,20,8,1,8,28,1,15,18,1,3.5,15,14,13,6,23
191017_1017,20,9,2,0,-23,1,15,0,0,0,14,14,14,7,23
191017_1017,20,10,3,11,5,1,12,13,1,0.5,10,15,15,3,23
191017_1017,20,11,2,3.5,77.5,2,15,15,1,8,14,14,14,5,23
191017_1017,20,12,2,0,8,1,18,14,0,0,12,13,14,4,23
191017_1017,20,13,3,0.5,67.5,2,12,13,1,11,15,10,15,5,23
191017_1017,20,14,1,3.5,83.5,2,15,18,1,8,15,13,13,6,23
191017_1017,20,15,1,10,-40,1,13,14,1,1.5,12,12,12,6,23
191017_1017,20,16,2,8,39,1,15,15,1,3.5,14,12,14,2,23
191017_1017,20,17,3,0,-16,1,16,10,0,0,12,14,14,5,23
191017_1017,20,18,3,2.5,53,2,14,18,1,9,0,0,0,4,23
191017_1017,20,19,1,0,-18,1,15,8,0,0,14,14,13,3,23
191017_1017,20,20,1,1.5,59.5,2,13,14,1,10,14,14,14,7,23
191017_1017,20,21,1,0,58,2,15,11,0,0,11,13,14,3,23
191017_1017,20,22,1,0,-21,1,15,11,0,0,14,14,15,2,23
191017_1017,20,23,3,9,14,1,14,18,1,2.5,12,14,14,5,23
191017_1017,20,24,3,0,88.5,2,16,10,0,0,14,14,15,3,23
191017_1017,21,1,2,0,18,2,6,0,0,0,11,13,13,6,11
191017_1017,21,2,2,1.5,33,2,7,12,1,4,14,12,13,6,11
191017_1017,21,3,1,7.5,77.5,2,13,17,1,-2,13,13,15,5,11
191017_1017,21,4,2,0,-13,1,11,11,1,5.5,14,14,14,3,11
191017_1017,21,5,2,5.5,65,2,11,11,1,0,15,14,14,6,11
191017_1017,21,6,3,5.5,115,2,11,13,1,0,15,14,14,4,11
191017_1017,21,7,3,0,-27,1,11,0,0,0,10,13,14,5,11
191017_1017,21,8,1,-2,26,1,13,17,1,7.5,15,14,13,6,11
191017_1017,21,9,2,0,-23,1,6,0,0,0,14,14,14,7,11
191017_1017,21,10,3,0,5,1,11,13,1,5.5,10,15,15,3,11
191017_1017,21,11,2,7.5,85,2,13,16,1,-2,14,14,14,5,11
191017_1017,21,12,2,4,12,1,7,12,1,1.5,12,13,14,4,11
191017_1017,21,13,3,6.5,74,2,12,15,1,-1,15,10,15,5,11
191017_1017,21,14,1,0,83.5,2,14,9,0,0,15,13,13,6,11
191017_1017,21,15,1,-1,-41,1,12,14,1,6.5,12,12,12,6,11
191017_1017,21,16,2,-2,37,1,13,16,1,7.5,14,12,14,2,11
191017_1017,21,17,3,3,-13,1,8,10,1,2.5,12,14,14,5,11
191017_1017,21,18,3,0,53,2,11,0,0,0,0,0,0,4,11
191017_1017,21,19,1,0,-18,1,10,6,0,0,14,14,13,3,11
191017_1017,21,20,1,6.5,66,2,12,14,1,-1,14,14,14,7,11
191017_1017,21,21,1,0,58,2,10,6,0,0,11,13,14,3,11
191017_1017,21,22,1,0,-21,1,14,9,0,0,14,14,15,2,11
191017_1017,21,23,3,-1,13,1,12,15,1,6.5,12,14,14,5,11
191017_1017,21,24,3,2.5,91,2,8,10,1,3,14,14,15,3,11
191017_1017,22,1,2,0,18,2,4,0,0,0,11,13,13,6,8
191017_1017,22,2,2,2,35,2,6,15,1,2,14,12,13,6,8
191017_1017,22,3,1,0,77.5,2,13,8,0,0,13,13,15,5,8
191017_1017,22,4,2,-2,-15,1,10,10,1,6,14,14,14,3,8
191017_1017,22,5,2,6,71,2,10,10,1,-2,15,14,14,6,8
191017_1017,22,6,3,0,115,2,12,5,0,0,15,14,14,4,8
191017_1017,22,7,3,0,-27,1,12,5,0,0,10,13,14,5,8
191017_1017,22,8,1,0,26,1,8,18,1,4,15,14,13,6,8
191017_1017,22,9,2,0,-23,1,4,0,0,0,14,14,14,7,8
191017_1017,22,10,3,1,6,1,7,12,1,3,10,15,15,3,8
191017_1017,22,11,2,9,94,2,13,14,1,-5,14,14,14,5,8
191017_1017,22,12,2,-5,7,1,13,14,1,9,12,13,14,4,8
191017_1017,22,13,3,0,74,2,10,5,0,0,15,10,15,5,8
191017_1017,22,14,1,8,91.5,2,12,13,1,-4,15,13,13,6,8
191017_1017,22,15,1,-4,-45,1,12,13,1,8,12,12,12,6,8
191017_1017,22,16,2,2,39,1,6,15,1,2,14,12,14,2,8
191017_1017,22,17,3,0,-13,1,8,10,1,4,12,14,14,5,8
191017_1017,22,18,3,4,57,2,8,10,1,0,0,0,0,4,8
191017_1017,22,19,1,0,-18,1,13,8,0,0,14,14,13,3,8
191017_1017,22,20,1,8,74,2,12,12,1,-4,14,14,14,7,8
191017_1017,22,21,1,4,62,2,8,18,1,0,11,13,14,3,8
191017_1017,22,22,1,-4,-25,1,12,12,1,8,14,14,15,2,8
191017_1017,22,23,3,0,13,1,10,5,0,0,12,14,14,5,8
191017_1017,22,24,3,3,94,2,7,12,1,1,14,14,15,3,8
191017_1017,23,1,2,0,18,2,9,0,0,0,11,13,13,6,16
191017_1017,23,2,2,5,40,2,13,15,1,3,14,12,13,6,16
191017_1017,23,3,1,5,82.5,2,13,18,1,3,13,13,15,5,16
191017_1017,23,4,2,0,-15,1,14,10,0,0,14,14,14,3,16
191017_1017,23,5,2,4,75,2,12,17,1,4,15,14,14,6,16
191017_1017,23,6,3,0,115,2,12,0,0,0,15,14,14,4,16
191017_1017,23,7,3,0,-27,1,12,0,0,0,10,13,14,5,16
191017_1017,23,8,1,3,29,1,13,18,1,5,15,14,13,6,16
191017_1017,23,9,2,0,-23,1,9,0,0,0,14,14,14,7,16
191017_1017,23,10,3,0,6,1,14,12,0,0,10,15,15,3,16
191017_1017,23,11,2,0,94,2,14,10,0,0,14,14,14,5,16
191017_1017,23,12,2,4,11,1,12,17,1,4,12,13,14,4,16
191017_1017,23,13,3,0,74,2,10,5,0,0,15,10,15,5,16
191017_1017,23,14,1,0,91.5,2,12,10,0,0,15,13,13,6,16
191017_1017,23,15,1,0,-45,1,15,13,0,0,12,12,12,6,16
191017_1017,23,16,2,3,42,1,13,15,1,5,14,12,14,2,16
191017_1017,23,17,3,0,-13,1,13,10,0,0,12,14,14,5,16
191017_1017,23,18,3,0,57,2,13,10,0,0,0,0,0,4,16
191017_1017,23,19,1,0,-18,1,13,8,0,0,14,14,13,3,16
191017_1017,23,20,1,0,74,2,13,8,0,0,14,14,14,7,16
191017_1017,23,21,1,0,62,2,15,13,0,0,11,13,14,3,16
191017_1017,23,22,1,0,-25,1,12,10,0,0,14,14,15,2,16
191017_1017,23,23,3,0,13,1,10,5,0,0,12,14,14,5,16
191017_1017,23,24,3,0,94,2,14,12,0,0,14,14,15,3,16
191017_1017,24,1,2,0.5,18.5,2,4,10,1,3,11,13,13,6,7
191017_1017,24,2,2,2.5,42.5,2,6,15,1,1,14,12,13,6,7
191017_1017,24,3,1,9.5,92,2,13,18,1,-6,13,13,15,5,7
191017_1017,24,4,2,3,-12,1,4,10,1,0.5,14,14,14,3,7
191017_1017,24,5,2,0,75,2,12,0,0,0,15,14,14,6,7
191017_1017,24,6,3,3.5,118.5,2,7,10,1,0,15,14,14,4,7
191017_1017,24,7,3,0,-27,1,8,0,0,0,10,13,14,5,7
191017_1017,24,8,1,-6,23,1,13,18,1,9.5,15,14,13,6,7
191017_1017,24,9,2,0,-23,1,12,0,0,0,14,14,14,7,7
191017_1017,24,10,3,-1,5,1,8,12,1,4.5,10,15,15,3,7
191017_1017,24,11,2,0,94,2,12,10,0,0,14,14,14,5,7
191017_1017,24,12,2,0,11,1,12,10,0,0,12,13,14,4,7
191017_1017,24,13,3,3.5,77.5,2,7,20,1,0,15,10,15,5,7
191017_1017,24,14,1,6.5,98,2,10,13,1,-3,15,13,13,6,7
191017_1017,24,15,1,-3,-48,1,10,13,1,6.5,12,12,12,6,7
191017_1017,24,16,2,1,43,1,6,15,1,2.5,14,12,14,2,7
191017_1017,24,17,3,0,-13,1,7,10,1,3.5,12,14,14,5,7
191017_1017,24,18,3,4.5,61.5,2,8,12,1,-1,0,0,0,4,7
191017_1017,24,19,1,0,-18,1,11,8,0,0,14,14,13,3,7
191017_1017,24,20,1,0,74,2,11,8,0,0,14,14,14,7,7
191017_1017,24,21,1,6.5,68.5,2,10,10,1,-3,11,13,14,3,7
191017_1017,24,22,1,-3,-28,1,10,10,1,6.5,14,14,15,2,7
191017_1017,24,23,3,0,13,1,7,20,1,3.5,12,14,14,5,7
191017_1017,24,24,3,0,94,2,8,0,0,0,14,14,15,3,7
191017_1017,25,1,2,0,18.5,2,4,15,1,4,11,13,13,6,8
191017_1017,25,2,2,0,42.5,2,7,0,0,0,14,12,13,6,8
191017_1017,25,3,1,0,92,2,12,8,0,0,13,13,15,5,8
191017_1017,25,4,2,0,-12,1,12,10,0,0,14,14,14,3,8
191017_1017,25,5,2,7,82,2,11,16,1,-3,15,14,14,6,8
191017_1017,25,6,3,6,124.5,2,10,15,1,-2,15,14,14,4,8
191017_1017,25,7,3,-2,-29,1,10,15,1,6,10,13,14,5,8
191017_1017,25,8,1,-4,19,1,12,19,1,8,15,14,13,6,8
191017_1017,25,9,2,0,-23,1,7,0,0,0,14,14,14,7,8
191017_1017,25,10,3,1,6,1,7,12,1,3,10,15,15,3,8
191017_1017,25,11,2,0,94,2,12,10,0,0,14,14,14,5,8
191017_1017,25,12,2,-3,8,1,11,16,1,7,12,13,14,4,8
191017_1017,25,13,3,0,77.5,2,7,3,0,0,15,10,15,5,8
191017_1017,25,14,1,0,98,2,12,10,0,0,15,13,13,6,8
191017_1017,25,15,1,0,-48,1,12,10,0,0,12,12,12,6,8
191017_1017,25,16,2,4,47,1,4,15,1,0,14,12,14,2,8
191017_1017,25,17,3,0,-13,1,8,10,1,4,12,14,14,5,8
191017_1017,25,18,3,4,65.5,2,8,10,1,0,0,0,0,4,8
191017_1017,25,19,1,0,-18,1,7,5,0,0,14,14,13,3,8
191017_1017,25,20,1,8,82,2,12,19,1,-4,14,14,14,7,8
191017_1017,25,21,1,0,68.5,2,7,5,0,0,11,13,14,3,8
191017_1017,25,22,1,0,-28,1,12,8,0,0,14,14,15,2,8
191017_1017,25,23,3,0,13,1,7,3,0,0,12,14,14,5,8
191017_1017,25,24,3,3,97,2,7,12,1,1,14,14,15,3,8
191017_1017,26,1,2,0,18.5,2,11,0,0,0,11,13,13,6,16
191017_1017,26,2,2,4,46.5,2,12,16,1,4,14,12,13,6,16
191017_1017,26,3,1,0,92,2,13,10,0,0,13,13,15,5,16
191017_1017,26,4,2,0,-12,1,12,10,0,0,14,14,14,3,16
191017_1017,26,5,2,2,84,2,10,15,1,6,15,14,14,6,16
191017_1017,26,6,3,2,126.5,2,10,15,1,6,15,14,14,4,16
191017_1017,26,7,3,6,-23,1,10,15,1,2,10,13,14,5,16
191017_1017,26,8,1,5,24,1,11,19,1,3,15,14,13,6,16
191017_1017,26,9,2,0,-23,1,11,0,0,0,14,14,14,7,16
191017_1017,26,10,3,0,6,1,12,11,0,0,10,15,15,3,16
191017_1017,26,11,2,0,94,2,12,10,0,0,14,14,14,5,16
191017_1017,26,12,2,4,12,1,12,16,1,4,12,13,14,4,16
191017_1017,26,13,3,0,77.5,2,12,11,0,0,15,10,15,5,16
191017_1017,26,14,1,3,101,2,11,19,1,5,15,13,13,6,16
191017_1017,26,15,1,0,-48,1,13,10,0,0,12,12,12,6,16
191017_1017,26,16,2,6,53,1,10,15,1,2,14,12,14,2,16
191017_1017,26,17,3,0,-13,1,13,10,0,0,12,14,14,5,16
191017_1017,26,18,3,0,65.5,2,13,10,0,0,0,0,0,4,16
191017_1017,26,19,1,0,-18,1,13,4,0,0,14,14,13,3,16
191017_1017,26,20,1,0,82,2,13,4,0,0,14,14,14,7,16
191017_1017,26,21,1,0,68.5,2,10,8,0,0,11,13,14,3,16
191017_1017,26,22,1,0,-28,1,10,8,0,0,14,14,15,2,16
191017_1017,26,23,3,0,13,1,12,8,0,0,12,14,14,5,16
191017_1017,26,24,3,0,97,2,12,8,0,0,14,14,15,3,16
191017_1017,27,1,2,0,18.5,2,4,0,0,0,11,13,13,6,7
191017_1017,27,2,2,2.5,49,2,6,15,1,1,14,12,13,6,7
191017_1017,27,3,1,8.5,100.5,2,12,18,1,-5,13,13,15,5,7
191017_1017,27,4,2,-3,-15,1,10,10,1,6.5,14,14,14,3,7
191017_1017,27,5,2,6.5,90.5,2,10,10,1,-3,15,14,14,6,7
191017_1017,27,6,3,6.5,133,2,10,15,1,-3,15,14,14,4,7
191017_1017,27,7,3,1,-22,1,6,15,1,2.5,10,13,14,5,7
191017_1017,27,8,1,-5,19,1,12,18,1,8.5,15,14,13,6,7
191017_1017,27,9,2,0,-23,1,4,0,0,0,14,14,14,7,7
191017_1017,27,10,3,1,7,1,6,12,1,2.5,10,15,15,3,7
191017_1017,27,11,2,6.5,100.5,2,10,12,1,-3,14,14,14,5,7
191017_1017,27,12,2,-3,9,1,10,12,1,6.5,12,13,14,4,7
191017_1017,27,13,3,2.5,80,2,6,15,1,1,15,10,15,5,7
191017_1017,27,14,1,0,101,2,11,5,0,0,15,13,13,6,7
191017_1017,27,15,1,0,-48,1,12,9,0,0,12,12,12,6,7
191017_1017,27,16,2,1,54,1,6,15,1,2.5,14,12,14,2,7
191017_1017,27,17,3,-1,-14,1,8,12,1,4.5,12,14,14,5,7
191017_1017,27,18,3,4.5,70,2,8,12,1,-1,0,0,0,4,7
191017_1017,27,19,1,0,-18,1,11,5,0,0,14,14,13,3,7
191017_1017,27,20,1,0,82,2,12,9,0,0,14,14,14,7,7
191017_1017,27,21,1,1.5,70,2,5,8,1,2,11,13,14,3,7
191017_1017,27,22,1,2,-26,1,5,8,1,1.5,14,14,15,2,7
191017_1017,27,23,3,-3,10,1,10,15,1,6.5,12,14,14,5,7
191017_1017,27,24,3,2.5,99.5,2,6,12,1,1,14,14,15,3,7
191017_1017,28,1,2,0,18.5,2,13,0,0,0,11,13,13,6,21
191017_1017,28,2,2,0,49,2,16,15,0,0,14,12,13,6,21
191017_1017,28,3,1,2.5,103,2,13,18,1,8,13,13,15,5,21
191017_1017,28,4,2,0,-15,1,14,8,0,0,14,14,14,3,21
191017_1017,28,5,2,0,90.5,2,14,13,0,0,15,14,14,6,21
191017_1017,28,6,3,1.5,134.5,2,12,12,1,9,15,14,14,4,21
191017_1017,28,7,3,0,-22,1,17,15,0,0,10,13,14,5,21
191017_1017,28,8,1,8,27,1,13,18,1,2.5,15,14,13,6,21
191017_1017,28,9,2,0,-23,1,13,0,0,0,14,14,14,7,21
191017_1017,28,10,3,0,7,1,13,10,0,0,10,15,15,3,21
191017_1017,28,11,2,0,100.5,2,14,8,0,0,14,14,14,5,21
191017_1017,28,12,2,0,9,1,14,13,0,0,12,13,14,4,21
191017_1017,28,13,3,0,80,2,11,1,0,0,15,10,15,5,21
191017_1017,28,14,1,0,101,2,12,7,0,0,15,13,13,6,21
191017_1017,28,15,1,0,-48,1,15,8,0,0,12,12,12,6,21
191017_1017,28,16,2,0,54,1,16,15,0,0,14,12,14,2,21
191017_1017,28,17,3,9,-5,1,12,12,1,1.5,12,14,14,5,21
191017_1017,28,18,3,0,70,2,17,15,0,0,0,0,0,4,21
191017_1017,28,19,1,0,-18,1,13,5,0,0,14,14,13,3,21
191017_1017,28,20,1,0,82,2,13,5,0,0,14,14,14,7,21
191017_1017,28,21,1,0,70,2,15,8,0,0,11,13,14,3,21
191017_1017,28,22,1,0,-26,1,12,7,0,0,14,14,15,2,21
191017_1017,28,23,3,0,10,1,11,1,0,0,12,14,14,5,21
191017_1017,28,24,3,0,99.5,2,13,10,0,0,14,14,15,3,21
191017_1017,29,1,2,0,18.5,2,20,0,0,0,11,13,13,6,33
191017_1017,29,2,2,0,49,2,18,15,0,0,14,12,13,6,33
191017_1017,29,3,1,0,103,2,18,7,0,0,13,13,15,5,33
191017_1017,29,4,2,0,-15,1,18,10,0,0,14,14,14,3,33
191017_1017,29,5,2,0,90.5,2,18,10,0,0,15,14,14,6,33
191017_1017,29,6,3,0,134.5,2,17,10,0,0,15,14,14,4,33
191017_1017,29,7,3,0,-22,1,25,16,0,0,10,13,14,5,33
191017_1017,29,8,1,0,27,1,20,17,0,0,15,14,13,6,33
191017_1017,29,9,2,0,-23,1,20,0,0,0,14,14,14,7,33
191017_1017,29,10,3,0,7,1,19,12,0,0,10,15,15,3,33
191017_1017,29,11,2,0,100.5,2,20,15,0,0,14,14,14,5,33
191017_1017,29,12,2,0,9,1,18,15,0,0,12,13,14,4,33
191017_1017,29,13,3,0,80,2,17,12,0,0,15,10,15,5,33
191017_1017,29,14,1,0,101,2,17,0,0,0,15,13,13,6,33
191017_1017,29,15,1,0,-48,1,20,8,0,0,12,12,12,6,33
191017_1017,29,16,2,0,54,1,20,15,0,0,14,12,14,2,33
191017_1017,29,17,3,0,-5,1,17,12,0,0,12,14,14,5,33
191017_1017,29,18,3,0,70,2,25,16,0,0,0,0,0,4,33
191017_1017,29,19,1,0,-18,1,17,0,0,0,14,14,13,3,33
191017_1017,29,20,1,0,82,2,20,17,0,0,14,14,14,7,33
191017_1017,29,21,1,0,70,2,20,8,0,0,11,13,14,3,33
191017_1017,29,22,1,0,-26,1,18,7,0,0,14,14,15,2,33
191017_1017,29,23,3,0,10,1,17,10,0,0,12,14,14,5,33
191017_1017,29,24,3,0,99.5,2,19,12,0,0,14,14,15,3,33
191017_1017,30,1,2,1.5,20,2,4,10,1,1,11,13,13,6,5
191017_1017,30,2,2,1.5,50.5,2,4,15,1,1,14,12,13,6,5
191017_1017,30,3,1,10.5,113.5,2,13,19,1,-8,13,13,15,5,5
191017_1017,30,4,2,1,-14,1,4,10,1,1.5,14,14,14,3,5
191017_1017,30,5,2,7.5,98,2,10,17,1,-5,15,14,14,6,5
191017_1017,30,6,3,7.5,142,2,10,14,1,-5,15,14,14,4,5
191017_1017,30,7,3,-3,-25,1,8,17,1,5.5,10,13,14,5,5
191017_1017,30,8,1,-8,19,1,13,19,1,10.5,15,14,13,6,5
191017_1017,30,9,2,0,-23,1,11,0,0,0,14,14,14,7,5
191017_1017,30,10,3,-4,3,1,9,12,1,6.5,10,15,15,3,5
191017_1017,30,11,2,0,100.5,2,11,0,0,0,14,14,14,5,5
191017_1017,30,12,2,-5,4,1,10,17,1,7.5,12,13,14,4,5
191017_1017,30,13,3,1.5,81.5,2,4,12,1,1,15,10,15,5,5
191017_1017,30,14,1,0,101,2,10,7,0,0,15,13,13,6,5
191017_1017,30,15,1,0,-48,1,10,8,0,0,12,12,12,6,5
191017_1017,30,16,2,1,55,1,4,15,1,1.5,14,12,14,2,5
191017_1017,30,17,3,1,-4,1,4,12,1,1.5,12,14,14,5,5
191017_1017,30,18,3,5.5,75.5,2,8,17,1,-3,0,0,0,4,5
191017_1017,30,19,1,0,-18,1,10,1,0,0,14,14,13,3,5
191017_1017,30,20,1,0,82,2,10,1,0,0,14,14,14,7,5
191017_1017,30,21,1,0,70,2,10,8,0,0,11,13,14,3,5
191017_1017,30,22,1,0,-26,1,10,7,0,0,14,14,15,2,5
191017_1017,30,23,3,-5,5,1,10,14,1,7.5,12,14,14,5,5
191017_1017,30,24,3,6.5,106,2,9,12,1,-4,14,14,15,3,5
191017_1017,31,1,2,1,21,2,3,9,1,1,11,13,13,6,4
191017_1017,31,2,2,0,50.5,2,6,0,0,0,14,12,13,6,4
191017_1017,31,3,1,9,122.5,2,11,18,1,-7,13,13,15,5,4
191017_1017,31,4,2,1,-13,1,3,9,1,1,14,14,14,3,4
191017_1017,31,5,2,9,107,2,11,15,1,-7,15,14,14,6,4
191017_1017,31,6,3,8,150,2,10,10,1,-6,15,14,14,4,4
191017_1017,31,7,3,-4,-29,1,8,15,1,6,10,13,14,5,4
191017_1017,31,8,1,-7,12,1,11,18,1,9,15,14,13,6,4
191017_1017,31,9,2,0,-23,1,6,0,0,0,14,14,14,7,4
191017_1017,31,10,3,-6,-3,1,10,10,1,8,10,15,15,3,4
191017_1017,31,11,2,8,108.5,2,10,15,1,-6,14,14,14,5,4
191017_1017,31,12,2,-6,-2,1,10,15,1,8,12,13,14,4,4
191017_1017,31,13,3,6,87.5,2,8,8,1,-4,15,10,15,5,4
191017_1017,31,14,1,0,101,2,10,1,0,0,15,13,13,6,4
191017_1017,31,15,1,1,-47,1,3,7,1,1,12,12,12,6,4
191017_1017,31,16,2,-7,48,1,11,15,1,9,14,12,14,2,4
191017_1017,31,17,3,-4,-8,1,8,12,1,6,12,14,14,5,4
191017_1017,31,18,3,6,81.5,2,8,12,1,-4,0,0,0,4,4
191017_1017,31,19,1,0,-18,1,10,1,0,0,14,14,13,3,4
191017_1017,31,20,1,0,82,2,9,6,0,0,14,14,14,7,4
191017_1017,31,21,1,1,71,2,3,7,1,1,11,13,14,3,4
191017_1017,31,22,1,0,-26,1,9,6,0,0,14,14,15,2,4
191017_1017,31,23,3,-4,1,1,8,8,1,6,12,14,14,5,4
191017_1017,31,24,3,6,112,2,8,15,1,-4,14,14,15,3,4
191017_1017,32,1,2,3,24,2,10,15,1,4,11,13,13,6,14
191017_1017,32,2,2,3,53.5,2,10,16,1,4,14,12,13,6,14
191017_1017,32,3,1,0,122.5,2,11,1,0,0,13,13,15,5,14
191017_1017,32,4,2,0,-13,1,11,10,0,0,14,14,14,3,14
191017_1017,32,5,2,0,107,2,10,0,0,0,15,14,14,6,14
191017_1017,32,6,3,3,153,2,10,11,1,4,15,14,14,4,14
191017_1017,32,7,3,6,-23,1,8,15,1,1,10,13,14,5,14
191017_1017,32,8,1,4,16,1,10,18,1,3,15,14,13,6,14
191017_1017,32,9,2,0,-23,1,10,0,0,0,14,14,14,7,14
191017_1017,32,10,3,0,-3,1,11,8,0,0,10,15,15,3,14
191017_1017,32,11,2,0,108.5,2,11,10,0,0,14,14,14,5,14
191017_1017,32,12,2,4,2,1,10,16,1,3,12,13,14,4,14
191017_1017,32,13,3,1,88.5,2,8,15,1,6,15,10,15,5,14
191017_1017,32,14,1,1,102,2,8,8,1,6,15,13,13,6,14
191017_1017,32,15,1,6,-41,1,8,8,1,1,12,12,12,6,14
191017_1017,32,16,2,4,52,1,10,15,1,3,14,12,14,2,14
191017_1017,32,17,3,4,-4,1,10,12,1,3,12,14,14,5,14
191017_1017,32,18,3,0,81.5,2,11,8,0,0,0,0,0,4,14
191017_1017,32,19,1,0,-18,1,11,1,0,0,14,14,13,3,14
191017_1017,32,20,1,3,85,2,10,18,1,4,14,14,14,7,14
191017_1017,32,21,1,0,71,2,11,6,0,0,11,13,14,3,14
191017_1017,32,22,1,0,-26,1,11,6,0,0,14,14,15,2,14
191017_1017,32,23,3,4,5,1,10,11,1,3,12,14,14,5,14
191017_1017,32,24,3,3,115,2,10,12,1,4,14,14,15,3,14
191017_1017,33,1,2,0,24,2,30,0,0,0,11,13,13,6,40
191017_1017,33,2,2,0,53.5,2,22,15,0,0,14,12,13,6,40
191017_1017,33,3,1,0,122.5,2,22,8,0,0,13,13,15,5,40
191017_1017,33,4,2,0,-13,1,26,10,0,0,14,14,14,3,40
191017_1017,33,5,2,0,107,2,26,10,0,0,15,14,14,6,40
191017_1017,33,6,3,0,153,2,20,12,0,0,15,14,14,4,40
191017_1017,33,7,3,0,-23,1,30,16,0,0,10,13,14,5,40
191017_1017,33,8,1,0,16,1,20,18,0,0,15,14,13,6,40
191017_1017,33,9,2,0,-23,1,30,0,0,0,14,14,14,7,40
191017_1017,33,10,3,0,-3,1,20,12,0,0,10,15,15,3,40
191017_1017,33,11,2,0,108.5,2,25,15,0,0,14,14,14,5,40
191017_1017,33,12,2,0,2,1,25,15,0,0,12,13,14,4,40
191017_1017,33,13,3,0,88.5,2,21,6,0,0,15,10,15,5,40
191017_1017,33,14,1,0,102,2,20,7,0,0,15,13,13,6,40
191017_1017,33,15,1,0,-41,1,22,8,0,0,12,12,12,6,40
191017_1017,33,16,2,0,52,1,22,15,0,0,14,12,14,2,40
191017_1017,33,17,3,0,-4,1,20,12,0,0,12,14,14,5,40
191017_1017,33,18,3,0,81.5,2,30,16,0,0,0,0,0,4,40
191017_1017,33,19,1,0,-18,1,30,1,0,0,14,14,13,3,40
191017_1017,33,20,1,0,85,2,20,18,0,0,14,14,14,7,40
191017_1017,33,21,1,0,71,2,30,1,0,0,11,13,14,3,40
191017_1017,33,22,1,0,-26,1,20,7,0,0,14,14,15,2,40
191017_1017,33,23,3,0,5,1,21,6,0,0,12,14,14,5,40
191017_1017,33,24,3,0,115,2,20,12,0,0,14,14,15,3,40
191017_1017,34,1,2,0,24,2,25,0,0,0,11,13,13,6,33
191017_1017,34,2,2,0.5,54,2,17,18,1,16,14,12,13,6,33
191017_1017,34,3,1,0,122.5,2,19,7,0,0,13,13,15,5,33
191017_1017,34,4,2,15,2,1,18,30,1,1.5,14,14,14,3,33
191017_1017,34,5,2,1.5,108.5,2,18,30,1,15,15,14,14,6,33
191017_1017,34,6,3,0,153,2,17,12,0,0,15,14,14,4,33
191017_1017,34,7,3,0,-23,1,24,17,0,0,10,13,14,5,33
191017_1017,34,8,1,16,32,1,17,19,1,0.5,15,14,13,6,33
191017_1017,34,9,2,0,-23,1,25,0,0,0,14,14,14,7,33
191017_1017,34,10,3,0,-3,1,17,12,0,0,10,15,15,3,33
191017_1017,34,11,2,3.5,112,2,20,20,1,13,14,14,14,5,33
191017_1017,34,12,2,16,18,1,17,18,1,0.5,12,13,14,4,33
191017_1017,34,13,3,0.5,89,2,17,19,1,16,15,10,15,5,33
191017_1017,34,14,1,0.5,102.5,2,17,19,1,16,15,13,13,6,33
191017_1017,34,15,1,15,-26,1,18,20,1,1.5,12,12,12,6,33
191017_1017,34,16,2,13,65,1,20,20,1,3.5,14,12,14,2,33
191017_1017,34,17,3,0,-4,1,17,12,0,0,12,14,14,5,33
191017_1017,34,18,3,0,81.5,2,24,17,0,0,0,0,0,4,33
191017_1017,34,19,1,0,-18,1,17,2,0,0,14,14,13,3,33
191017_1017,34,20,1,0,85,2,17,2,0,0,14,14,14,7,33
191017_1017,34,21,1,1.5,72.5,2,18,20,1,15,11,13,14,3,33
191017_1017,34,22,1,0,-26,1,19,7,0,0,14,14,15,2,33
191017_1017,34,23,3,16,21,1,17,19,1,0.5,12,14,14,5,33
191017_1017,34,24,3,0,115,2,17,12,0,0,14,14,15,3,33
191017_1017,35,1,2,0,24,2,2,0,0,0,11,13,13,6,3
191017_1017,35,2,2,8.5,62.5,2,10,10,1,-7,14,12,13,6,3
191017_1017,35,3,1,0,122.5,2,13,3,0,0,13,13,15,5,3
191017_1017,35,4,2,-7,-5,1,10,10,1,8.5,14,14,14,3,3
191017_1017,35,5,2,9.5,118,2,11,40,1,-8,15,14,14,6,3
191017_1017,35,6,3,8.5,161.5,2,10,14,1,-7,15,14,14,4,3
191017_1017,35,7,3,-9,-32,1,12,17,1,10.5,10,13,14,5,3
191017_1017,35,8,1,-6,26,1,9,18,1,7.5,15,14,13,6,3
191017_1017,35,9,2,0,-23,1,2,0,0,0,14,14,14,7,3
191017_1017,35,10,3,-7,-10,1,10,14,1,8.5,10,15,15,3,3
191017_1017,35,11,2,10.5,122.5,2,12,15,1,-9,14,14,14,5,3
191017_1017,35,12,2,-9,9,1,12,15,1,10.5,12,13,14,4,3
191017_1017,35,13,3,10.5,99.5,2,12,17,1,-9,15,10,15,5,3
191017_1017,35,14,1,0,102.5,2,10,8,0,0,15,13,13,6,3
191017_1017,35,15,1,0,-26,1,10,8,0,0,12,12,12,6,3
191017_1017,35,16,2,-8,57,1,11,40,1,9.5,14,12,14,2,3
191017_1017,35,17,3,-5,-9,1,8,12,1,6.5,12,14,14,5,3
191017_1017,35,18,3,0,81.5,2,9,6,0,0,0,0,0,4,3
191017_1017,35,19,1,0,-18,1,13,3,0,0,14,14,13,3,3
191017_1017,35,20,1,7.5,92.5,2,9,18,1,-6,14,14,14,7,3
191017_1017,35,21,1,0,72.5,2,9,6,0,0,11,13,14,3,3
191017_1017,35,22,1,0,-26,1,9,6,0,0,14,14,15,2,3
191017_1017,35,23,3,0,21,1,9,6,0,0,12,14,14,5,3
191017_1017,35,24,3,6.5,121.5,2,8,12,1,-5,14,14,15,3,3
191017_1017,36,1,2,3,27,2,20,40,1,14,11,13,13,6,34
191017_1017,36,2,2,0,62.5,2,19,0,0,0,14,12,13,6,34
191017_1017,36,3,1,0,122.5,2,19,18,0,0,13,13,15,5,34
191017_1017,36,4,2,13,8,1,21,30,1,4,14,14,14,3,34
191017_1017,36,5,2,0,118,2,20,15,0,0,15,14,14,6,34
191017_1017,36,6,3,0,161.5,2,17,11,0,0,15,14,14,4,34
191017_1017,36,7,3,0,-32,1,18,15,0,0,10,13,14,5,34
191017_1017,36,8,1,16,42,1,18,18,1,1,15,14,13,6,34
191017_1017,36,9,2,0,-23,1,19,0,0,0,14,14,14,7,34
191017_1017,36,10,3,0,-10,1,22,10,0,0,10,15,15,3,34
191017_1017,36,11,2,4,126.5,2,21,30,1,13,14,14,14,5,34
191017_1017,36,12,2,0,9,1,20,15,0,0,12,13,14,4,34
191017_1017,36,13,3,0,99.5,2,18,15,0,0,15,10,15,5,34
191017_1017,36,14,1,1,103.5,2,18,18,1,16,15,13,13,6,34
191017_1017,36,15,1,0,-26,1,19,18,0,0,12,12,12,6,34
191017_1017,36,16,2,14,71,1,20,40,1,3,14,12,14,2,34
191017_1017,36,17,3,0,-9,1,16,12,0,0,12,14,14,5,34
191017_1017,36,18,3,0,81.5,2,22,10,0,0,0,0,0,4,34
191017_1017,36,19,1,0,-18,1,24,1,0,0,14,14,13,3,34
191017_1017,36,20,1,0,92.5,2,19,6,0,0,14,14,14,7,34
191017_1017,36,21,1,0,72.5,2,24,1,0,0,11,13,14,3,34
191017_1017,36,22,1,0,-26,1,19,6,0,0,14,14,15,2,34
191017_1017,36,23,3,0,21,1,17,11,0,0,12,14,14,5,34
191017_1017,36,24,3,0,121.5,2,16,12,0,0,14,14,15,3,34
191017_1017,37,1,2,1.5,28.5,2,6,13,1,3,11,13,13,6,9
191017_1017,37,2,2,0,62.5,2,10,0,0,0,14,12,13,6,9
191017_1017,37,3,1,0,122.5,2,12,6,0,0,13,13,15,5,9
191017_1017,37,4,2,-2,6,1,11,25,1,6.5,14,14,14,3,9
191017_1017,37,5,2,6.5,124.5,2,11,25,1,-2,15,14,14,6,9
191017_1017,37,6,3,5.5,167,2,10,15,1,-1,15,14,14,4,9
191017_1017,37,7,3,0,-32,1,9,18,1,4.5,10,13,14,5,9
191017_1017,37,8,1,1,43,1,8,18,1,3.5,15,14,13,6,9
191017_1017,37,9,2,0,-23,1,10,0,0,0,14,14,14,7,9
191017_1017,37,10,3,-1,-11,1,10,11,1,5.5,10,15,15,3,9
191017_1017,37,11,2,10.5,137,2,15,40,1,-6,14,14,14,5,9
191017_1017,37,12,2,3,12,1,6,13,1,1.5,12,13,14,4,9
191017_1017,37,13,3,4.5,104,2,9,18,1,0,15,10,15,5,9
191017_1017,37,14,1,5.5,109,2,10,19,1,-1,15,13,13,6,9
191017_1017,37,15,1,-1,-27,1,10,19,1,5.5,12,12,12,6,9
191017_1017,37,16,2,-6,65,1,15,40,1,10.5,14,12,14,2,9
191017_1017,37,17,3,-1,-10,1,10,15,1,5.5,12,14,14,5,9
191017_1017,37,18,3,3.5,85,2,8,11,1,1,0,0,0,4,9
191017_1017,37,19,1,0,-18,1,10,1,0,0,14,14,13,3,9
191017_1017,37,20,1,0,92.5,2,10,1,0,0,14,14,14,7,9
191017_1017,37,21,1,3.5,76,2,8,18,1,1,11,13,14,3,9
191017_1017,37,22,1,0,-26,1,12,6,0,0,14,14,15,2,9
191017_1017,37,23,3,1,22,1,8,11,1,3.5,12,14,14,5,9
191017_1017,37,24,3,5.5,127,2,10,11,1,-1,14,14,15,3,9
191017_1017,38,1,2,0,28.5,2,24,10,0,0,11,13,13,6,32
191017_1017,38,2,2,0,62.5,2,17,0,0,0,14,12,13,6,32
191017_1017,38,3,1,0,122.5,2,17,6,0,0,13,13,15,5,32
191017_1017,38,4,2,0,6,1,18,8,0,0,14,14,14,3,32
191017_1017,38,5,2,0,124.5,2,18,8,0,0,15,14,14,6,32
191017_1017,38,6,3,0,167,2,16,11,0,0,15,14,14,4,32
191017_1017,38,7,3,0,-32,1,24,17,0,0,10,13,14,5,32
191017_1017,38,8,1,14,57,1,18,18,1,2,15,14,13,6,32
191017_1017,38,9,2,0,-23,1,17,0,0,0,14,14,14,7,32
191017_1017,38,10,3,0,-11,1,16,11,0,0,10,15,15,3,32
191017_1017,38,11,2,6,143,2,22,40,1,10,14,14,14,5,32
191017_1017,38,12,2,0,12,1,24,10,0,0,12,13,14,4,32
191017_1017,38,13,3,0,104,2,17,11,0,0,15,10,15,5,32
191017_1017,38,14,1,2,111,2,18,18,1,14,15,13,13,6,32
191017_1017,38,15,1,15,-12,1,17,19,1,1,12,12,12,6,32
191017_1017,38,16,2,10,75,1,22,40,1,6,14,12,14,2,32
191017_1017,38,17,3,0,-10,1,16,15,0,0,12,14,14,5,32
191017_1017,38,18,3,0,85,2,24,17,0,0,0,0,0,4,32
191017_1017,38,19,1,0,-18,1,24,1,0,0,14,14,13,3,32
191017_1017,38,20,1,1,93.5,2,17,19,1,15,14,14,14,7,32
191017_1017,38,21,1,0,76,2,24,1,0,0,11,13,14,3,32
191017_1017,38,22,1,0,-26,1,17,6,0,0,14,14,15,2,32
191017_1017,38,23,3,0,22,1,17,11,0,0,12,14,14,5,32
191017_1017,38,24,3,0,127,2,16,15,0,0,14,14,15,3,32
191017_1017,39,1,2,6,34.5,2,20,40,1,8,11,13,13,6,28
191017_1017,39,2,2,2,64.5,2,16,25,1,12,14,12,13,6,28
191017_1017,39,3,1,2,124.5,2,16,20,1,12,13,13,15,5,28
191017_1017,39,4,2,12,18,1,16,25,1,2,14,14,14,3,28
191017_1017,39,5,2,0,124.5,2,16,15,0,0,15,14,14,6,28
191017_1017,39,6,3,0,167,2,14,15,1,14,15,14,14,4,28
191017_1017,39,7,3,0,-32,1,20,17,0,0,10,13,14,5,28
191017_1017,39,8,1,10,67,1,18,18,1,4,15,14,13,6,28
191017_1017,39,9,2,0,-23,1,22,0,0,0,14,14,14,7,28
191017_1017,39,10,3,13,2,1,15,15,1,1,10,15,15,3,28
191017_1017,39,11,2,0,143,2,22,0,0,0,14,14,14,5,28
191017_1017,39,12,2,0,12,1,16,15,0,0,12,13,14,4,28
191017_1017,39,13,3,1,105,2,15,15,1,13,15,10,15,5,28
191017_1017,39,14,1,4,115,2,18,18,1,10,15,13,13,6,28
191017_1017,39,15,1,12,0,1,16,20,1,2,12,12,12,6,28
191017_1017,39,16,2,8,83,1,20,40,1,6,14,12,14,2,28
191017_1017,39,17,3,14,4,1,14,15,1,0,12,14,14,5,28
191017_1017,39,18,3,0,85,2,20,17,0,0,0,0,0,4,28
191017_1017,39,19,1,0,-18,1,22,1,0,0,14,14,13,3,28
191017_1017,39,20,1,0,93.5,2,18,6,0,0,14,14,14,7,28
191017_1017,39,21,1,0,76,2,22,1,0,0,11,13,14,3,28
191017_1017,39,22,1,0,-26,1,18,6,0,0,14,14,15,2,28
191017_1017,39,23,3,14,36,1,14,23,1,0,12,14,14,5,28
191017_1017,39,24,3,0,127,2,14,23,1,14,14,14,15,3,28
191017_1017,40,1,2,0,34.5,2,8,0,0,0,11,13,13,6,10
191017_1017,40,2,2,11,75.5,2,16,25,1,-6,14,12,13,6,10
191017_1017,40,3,1,0,124.5,2,14,5,0,0,13,13,15,5,10
191017_1017,40,4,2,-6,12,1,16,25,1,11,14,14,14,3,10
191017_1017,40,5,2,6,130.5,2,11,16,1,-1,15,14,14,6,10
191017_1017,40,6,3,5,172,2,10,17,1,0,15,14,14,4,10
191017_1017,40,7,3,0,-32,1,10,17,1,5,10,13,14,5,10
191017_1017,40,8,1,-2,65,1,12,18,1,7,15,14,13,6,10
191017_1017,40,9,2,0,-23,1,8,0,0,0,14,14,14,7,10
191017_1017,40,10,3,0,2,1,10,14,1,5,10,15,15,3,10
191017_1017,40,11,2,11,154,2,16,40,1,-6,14,14,14,5,10
191017_1017,40,12,2,-1,11,1,11,16,1,6,12,13,14,4,10
191017_1017,40,13,3,6,111,2,11,15,1,-1,15,10,15,5,10
191017_1017,40,14,1,7,122,2,12,18,1,-2,15,13,13,6,10
191017_1017,40,15,1,2,2,1,8,20,1,3,12,12,12,6,10
191017_1017,40,16,2,-6,77,1,16,40,1,11,14,12,14,2,10
191017_1017,40,17,3,-1,3,1,11,15,1,6,12,14,14,5,10
191017_1017,40,18,3,3,88,2,8,16,1,2,0,0,0,4,10
191017_1017,40,19,1,0,-18,1,12,1,0,0,14,14,13,3,10
191017_1017,40,20,1,0,93.5,2,12,1,0,0,14,14,14,7,10
191017_1017,40,21,1,3,79,2,8,20,1,2,11,13,14,3,10
191017_1017,40,22,1,0,-26,1,14,5,0,0,14,14,15,2,10
191017_1017,40,23,3,2,38,1,8,16,1,3,12,14,14,5,10
191017_1017,40,24,3,5,132,2,10,14,1,0,14,14,15,3,10
191017_1017,41,1,2,6.5,41,2,20,40,1,7,11,13,13,6,27
191017_1017,41,2,2,0,75.5,2,16,0,0,0,14,12,13,6,27
191017_1017,41,3,1,1.5,126,2,15,20,1,12,13,13,15,5,27
191017_1017,41,4,2,0,12,1,15,8,0,0,14,14,14,3,27
191017_1017,41,5,2,0,130.5,2,15,8,0,0,15,14,14,6,27
191017_1017,41,6,3,0,172,2,14,13,0,0,15,14,14,4,27
191017_1017,41,7,3,12,-20,1,15,17,1,1.5,10,13,14,5,27
191017_1017,41,8,1,12,77,1,15,18,1,1.5,15,14,13,6,27
191017_1017,41,9,2,0,-23,1,16,0,0,0,14,14,14,7,27
191017_1017,41,10,3,0,2,1,14,13,0,0,10,15,15,3,27
191017_1017,41,11,2,0,154,2,20,14,0,0,14,14,14,5,27
191017_1017,41,12,2,0,11,1,20,14,0,0,12,13,14,4,27
191017_1017,41,13,3,0,111,2,14,10,0,0,15,10,15,5,27
191017_1017,41,14,1,0,122,2,16,1,0,0,15,13,13,6,27
191017_1017,41,15,1,12,14,1,15,20,1,1.5,12,12,12,6,27
191017_1017,41,16,2,7,84,1,20,40,1,6.5,14,12,14,2,27
191017_1017,41,17,3,0,3,1,17,15,0,0,12,14,14,5,27
191017_1017,41,18,3,0,88,2,17,15,0,0,0,0,0,4,27
191017_1017,41,19,1,0,-18,1,16,1,0,0,14,14,13,3,27
191017_1017,41,20,1,1.5,95,2,15,18,1,12,14,14,14,7,27
191017_1017,41,21,1,0,79,2,21,5,0,0,11,13,14,3,27
191017_1017,41,22,1,0,-26,1,21,5,0,0,14,14,15,2,27
191017_1017,41,23,3,0,38,1,14,10,0,0,12,14,14,5,27
191017_1017,41,24,3,1.5,133.5,2,15,17,1,12,14,14,15,3,27
191017_1017,42,1,2,3,44,2,10,25,1,4,11,13,13,6,14
191017_1017,42,2,2,0,75.5,2,15,0,0,0,14,12,13,6,14
191017_1017,42,3,1,8,134,2,15,18,1,-1,13,13,15,5,14
191017_1017,42,4,2,4,16,1,10,25,1,3,14,14,14,3,14
191017_1017,42,5,2,4,134.5,2,11,40,1,3,15,14,14,6,14
191017_1017,42,6,3,5,177,2,12,15,1,2,15,14,14,4,14
191017_1017,42,7,3,2,-18,1,12,17,1,5,10,13,14,5,14
191017_1017,42,8,1,-1,76,1,15,18,1,8,15,14,13,6,14
191017_1017,42,9,2,0,-23,1,15,0,0,0,14,14,14,7,14
191017_1017,42,10,3,2,4,1,12,17,1,5,10,15,15,3,14
191017_1017,42,11,2,7,161,2,14,15,1,0,14,14,14,5,14
191017_1017,42,12,2,0,11,1,14,15,1,7,12,13,14,4,14
191017_1017,42,13,3,6,117,2,13,18,1,1,15,10,15,5,14
191017_1017,42,14,1,9,131,2,16,20,1,-2,15,13,13,6,14
191017_1017,42,15,1,-2,12,1,16,20,1,9,12,12,12,6,14
191017_1017,42,16,2,3,87,1,11,40,1,4,14,12,14,2,14
191017_1017,42,17,3,2,5,1,12,15,1,5,12,14,14,5,14
191017_1017,42,18,3,5,93,2,12,17,1,2,0,0,0,4,14
191017_1017,42,19,1,0,-18,1,11,1,0,0,14,14,13,3,14
191017_1017,42,20,1,0,95,2,13,5,0,0,14,14,14,7,14
191017_1017,42,21,1,0,79,2,11,1,0,0,11,13,14,3,14
191017_1017,42,22,1,0,-26,1,13,5,0,0,14,14,15,2,14
191017_1017,42,23,3,1,39,1,13,18,1,6,12,14,14,5,14
191017_1017,42,24,3,5,138.5,2,12,17,1,2,14,14,15,3,14
191017_1017,43,1,2,0.5,44.5,2,4,40,1,3,11,13,13,6,7
191017_1017,43,2,2,0,75.5,2,11,0,0,0,14,12,13,6,7
191017_1017,43,3,1,0,134,2,13,5,0,0,13,13,15,5,7
191017_1017,43,4,2,-5,11,1,12,18,1,8.5,14,14,14,3,7
191017_1017,43,5,2,8.5,143,2,12,18,1,-5,15,14,14,6,7
191017_1017,43,6,3,8.5,185.5,2,12,15,1,-5,15,14,14,4,7
191017_1017,43,7,3,-3,-21,1,10,16,1,6.5,10,13,14,5,7
191017_1017,43,8,1,-5,71,1,12,18,1,8.5,15,14,13,6,7
191017_1017,43,9,2,0,-23,1,11,0,0,0,14,14,14,7,7
191017_1017,43,10,3,-6,-2,1,13,16,1,9.5,10,15,15,3,7
191017_1017,43,11,2,9.5,170.5,2,13,16,1,-6,14,14,14,5,7
191017_1017,43,12,2,-6,5,1,13,16,1,9.5,12,13,14,4,7
191017_1017,43,13,3,9.5,126.5,2,13,16,1,-6,15,10,15,5,7
191017_1017,43,14,1,8.5,139.5,2,12,18,1,-5,15,13,13,6,7
191017_1017,43,15,1,1,13,1,6,18,1,2.5,12,12,12,6,7
191017_1017,43,16,2,3,90,1,4,40,1,0.5,14,12,14,2,7
191017_1017,43,17,3,-5,0,1,12,15,1,8.5,12,14,14,5,7
191017_1017,43,18,3,4.5,97.5,2,8,15,1,-1,0,0,0,4,7
191017_1017,43,19,1,0,-18,1,9,1,0,0,14,14,13,3,7
191017_1017,43,20,1,0,95,2,9,1,0,0,14,14,14,7,7
191017_1017,43,21,1,2.5,81.5,2,6,18,1,1,11,13,14,3,7
191017_1017,43,22,1,0,-26,1,13,5,0,0,14,14,15,2,7
191017_1017,43,23,3,-1,38,1,8,15,1,4.5,12,14,14,5,7
191017_1017,43,24,3,6.5,145,2,10,16,1,-3,14,14,15,3,7
191017_1017,44,1,2,7,51.5,2,18,18,1,4,11,13,13,6,22
191017_1017,44,2,2,0,75.5,2,14,13,0,0,14,12,13,6,22
191017_1017,44,3,1,0,134,2,14,1,0,0,13,13,15,5,22
191017_1017,44,4,2,4,15,1,18,18,1,7,14,14,14,3,22
191017_1017,44,5,2,4,147,2,15,40,1,7,15,14,14,6,22
191017_1017,44,6,3,1,186.5,2,12,15,1,10,15,14,14,4,22
191017_1017,44,7,3,7,-14,1,15,15,1,4,10,13,14,5,22
191017_1017,44,8,1,7,78,1,15,18,1,4,15,14,13,6,22
191017_1017,44,9,2,0,-23,1,16,0,0,0,14,14,14,7,22
191017_1017,44,10,3,7,5,1,15,15,1,4,10,15,15,3,22
191017_1017,44,11,2,0,170.5,2,16,0,0,0,14,14,14,5,22
191017_1017,44,12,2,0,5,1,14,13,0,0,12,13,14,4,22
191017_1017,44,13,3,0,126.5,2,15,11,0,0,15,10,15,5,22
191017_1017,44,14,1,0,139.5,2,16,5,0,0,15,13,13,6,22
191017_1017,44,15,1,5,18,1,17,17,1,6,12,12,12,6,22
191017_1017,44,16,2,7,97,1,15,40,1,4,14,12,14,2,22
191017_1017,44,17,3,10,10,1,12,15,1,1,12,14,14,5,22
191017_1017,44,18,3,4,101.5,2,15,15,1,7,0,0,0,4,22
191017_1017,44,19,1,0,-18,1,14,1,0,0,14,14,13,3,22
191017_1017,44,20,1,4,99,2,15,18,1,7,14,14,14,7,22
191017_1017,44,21,1,6,87.5,2,17,17,1,5,11,13,14,3,22
191017_1017,44,22,1,0,-26,1,16,5,0,0,14,14,15,2,22
191017_1017,44,23,3,0,38,1,15,11,0,0,12,14,14,5,22
191017_1017,44,24,3,4,149,2,15,15,1,7,14,14,15,3,22
191017_1017,45,1,2,0,51.5,2,25,8,0,0,11,13,13,6,34
191017_1017,45,2,2,0,75.5,2,18,0,0,0,14,12,13,6,34
191017_1017,45,3,1,0,134,2,20,1,0,0,13,13,15,5,34
191017_1017,45,4,2,0,15,1,25,8,0,0,14,14,14,3,34
191017_1017,45,5,2,0,147,2,18,15,0,0,15,14,14,6,34
191017_1017,45,6,3,0,186.5,2,17,16,0,0,15,14,14,4,34
191017_1017,45,7,3,0,-14,1,17,16,0,0,10,13,14,5,34
191017_1017,45,8,1,0,78,1,25,18,0,0,15,14,13,6,34
191017_1017,45,9,2,0,-23,1,18,0,0,0,14,14,14,7,34
191017_1017,45,10,3,0,5,1,18,15,0,0,10,15,15,3,34
191017_1017,45,11,2,5,175.5,2,22,40,1,12,14,14,14,5,34
191017_1017,45,12,2,0,5,1,18,15,0,0,12,13,14,4,34
191017_1017,45,13,3,0,126.5,2,18,15,0,0,15,10,15,5,34
191017_1017,45,14,1,0,139.5,2,19,5,0,0,15,13,13,6,34
191017_1017,45,15,1,0,18,1,20,17,0,0,12,12,12,6,34
191017_1017,45,16,2,12,109,1,22,40,1,5,14,12,14,2,34
191017_1017,45,17,3,0,10,1,26,15,0,0,12,14,14,5,34
191017_1017,45,18,3,0,101.5,2,26,15,0,0,0,0,0,4,34
191017_1017,45,19,1,0,-18,1,20,1,0,0,14,14,13,3,34
191017_1017,45,20,1,0,99,2,20,17,0,0,14,14,14,7,34
191017_1017,45,21,1,0,87.5,2,25,18,0,0,11,13,14,3,34
191017_1017,45,22,1,0,-26,1,19,5,0,0,14,14,15,2,34
191017_1017,45,23,3,0,38,1,17,15,0,0,12,14,14,5,34
191017_1017,45,24,3,0,149,2,17,15,0,0,14,14,15,3,34
191017_1017,46,1,2,5,56.5,2,15,16,1,5,11,13,13,6,20
191017_1017,46,2,2,2,77.5,2,12,40,1,8,14,12,13,6,20
191017_1017,46,3,1,0,134,2,14,1,0,0,13,13,15,5,20
191017_1017,46,4,2,0,15,1,14,8,0,0,14,14,14,3,20
191017_1017,46,5,2,0,147,2,14,8,0,0,15,14,14,6,20
191017_1017,46,6,3,2,188.5,2,12,20,1,8,15,14,14,4,20
191017_1017,46,7,3,5,-9,1,15,17,1,5,10,13,14,5,20
191017_1017,46,8,1,5,83,1,15,18,1,5,15,14,13,6,20
191017_1017,46,9,2,0,-23,1,16,0,0,0,14,14,14,7,20
191017_1017,46,10,3,7,12,1,13,20,1,3,10,15,15,3,20
191017_1017,46,11,2,0,175.5,2,16,0,0,0,14,14,14,5,20
191017_1017,46,12,2,5,10,1,15,16,1,5,12,13,14,4,20
191017_1017,46,13,3,3,129.5,2,13,15,1,7,15,10,15,5,20
191017_1017,46,14,1,0,139.5,2,15,5,0,0,15,13,13,6,20
191017_1017,46,15,1,5,23,1,15,18,1,5,12,12,12,6,20
191017_1017,46,16,2,8,117,1,12,40,1,2,14,12,14,2,20
191017_1017,46,17,3,7,17,1,13,15,1,3,12,14,14,5,20
191017_1017,46,18,3,5,106.5,2,15,17,1,5,0,0,0,4,20
191017_1017,46,19,1,0,-18,1,14,1,0,0,14,14,13,3,20
191017_1017,46,20,1,5,104,2,15,18,1,5,14,14,14,7,20
191017_1017,46,21,1,5,92.5,2,15,18,1,5,11,13,14,3,20
191017_1017,46,22,1,0,-26,1,15,5,0,0,14,14,15,2,20
191017_1017,46,23,3,8,46,1,12,20,1,2,12,14,14,5,20
191017_1017,46,24,3,3,152,2,13,20,1,7,14,14,15,3,20
191017_1017,47,1,2,1.5,58,2,4,16,1,1,11,13,13,6,5
191017_1017,47,2,2,0,77.5,2,13,0,0,0,14,12,13,6,5
191017_1017,47,3,1,8.5,142.5,2,11,18,1,-6,13,13,15,5,5
191017_1017,47,4,2,-7,8,1,12,13,1,9.5,14,14,14,3,5
191017_1017,47,5,2,7.5,154.5,2,10,40,1,-5,15,14,14,6,5
191017_1017,47,6,3,9.5,198,2,12,15,1,-7,15,14,14,4,5
191017_1017,47,7,3,-3,-12,1,8,15,1,5.5,10,13,14,5,5
191017_1017,47,8,1,-6,77,1,11,18,1,8.5,15,14,13,6,5
191017_1017,47,9,2,0,-23,1,13,0,0,0,14,14,14,7,5
191017_1017,47,10,3,-7,5,1,12,15,1,9.5,10,15,15,3,5
191017_1017,47,11,2,9.5,185,2,12,13,1,-7,14,14,14,5,5
191017_1017,47,12,2,1,11,1,4,16,1,1.5,12,13,14,4,5
191017_1017,47,13,3,9.5,139,2,12,16,1,-7,15,10,15,5,5
191017_1017,47,14,1,0,139.5,2,12,1,0,0,15,13,13,6,5
191017_1017,47,15,1,0,23,1,5,18,1,2.5,12,12,12,6,5
191017_1017,47,16,2,-5,112,1,10,40,1,7.5,14,12,14,2,5
191017_1017,47,17,3,-5,12,1,10,15,1,7.5,12,14,14,5,5
191017_1017,47,18,3,5.5,112,2,8,15,1,-3,0,0,0,4,5
191017_1017,47,19,1,0,-18,1,12,1,0,0,14,14,13,3,5
191017_1017,47,20,1,0,104,2,15,5,0,0,14,14,14,7,5
191017_1017,47,21,1,2.5,95,2,5,18,1,0,11,13,14,3,5
191017_1017,47,22,1,0,-26,1,15,5,0,0,14,14,15,2,5
191017_1017,47,23,3,-7,39,1,12,16,1,9.5,12,14,14,5,5
191017_1017,47,24,3,7.5,159.5,2,10,15,1,-5,14,14,15,3,5
191017_1017,48,1,2,0,58,2,23,0,0,0,11,13,13,6,30
191017_1017,48,2,2,0,77.5,2,17,12,0,0,14,12,13,6,30
191017_1017,48,3,1,0,142.5,2,19,18,0,0,13,13,15,5,30
191017_1017,48,4,2,0,8,1,17,12,0,0,14,14,14,3,30
191017_1017,48,5,2,5,159.5,2,20,40,1,10,15,14,14,6,30
191017_1017,48,6,3,0,198,2,15,14,0,0,15,14,14,4,30
191017_1017,48,7,3,0,-12,1,16,15,0,0,10,13,14,5,30
191017_1017,48,8,1,0,77,1,19,18,0,0,15,14,13,6,30
191017_1017,48,9,2,0,-23,1,23,0,0,0,14,14,14,7,30
191017_1017,48,10,3,0,5,1,15,14,0,0,10,15,15,3,30
191017_1017,48,11,2,0,185,2,20,16,0,0,14,14,14,5,30
191017_1017,48,12,2,0,11,1,20,16,0,0,12,13,14,4,30
191017_1017,48,13,3,0,139,2,16,15,0,0,15,10,15,5,30
191017_1017,48,14,1,0,139.5,2,18,1,0,0,15,13,13,6,30
191017_1017,48,15,1,0,23,1,20,17,0,0,12,12,12,6,30
191017_1017,48,16,2,10,122,1,20,40,1,5,14,12,14,2,30
191017_1017,48,17,3,15,27,1,15,15,1,0,12,14,14,5,30
191017_1017,48,18,3,0,112,2,20,7,0,0,0,0,0,4,30
191017_1017,48,19,1,0,-18,1,18,1,0,0,14,14,13,3,30
191017_1017,48,20,1,0,104,2,17,5,0,0,14,14,14,7,30
191017_1017,48,21,1,0,95,2,20,17,0,0,11,13,14,3,30
191017_1017,48,22,1,0,-26,1,17,5,0,0,14,14,15,2,30
191017_1017,48,23,3,0,39,1,20,7,0,0,12,14,14,5,30
191017_1017,48,24,3,0,159.5,2,15,15,1,15,14,14,15,3,30
191017_1017,49,1,2,0,58,2,14,0,0,0,11,13,13,6,17
191017_1017,49,2,2,1.5,79,2,10,40,1,7,14,12,13,6,17
191017_1017,49,3,1,0,142.5,2,13,1,0,0,13,13,15,5,17
191017_1017,49,4,2,1,9,1,16,25,1,7.5,14,14,14,3,17
191017_1017,49,5,2,5.5,165,2,14,16,1,3,15,14,14,6,17
191017_1017,49,6,3,3.5,201.5,2,12,16,1,5,15,14,14,4,17
191017_1017,49,7,3,5,-7,1,12,16,1,3.5,10,13,14,5,17
191017_1017,49,8,1,2,79,1,15,18,1,6.5,15,14,13,6,17
191017_1017,49,9,2,0,-23,1,14,0,0,0,14,14,14,7,17
191017_1017,49,10,3,2,7,1,15,15,1,6.5,10,15,15,3,17
191017_1017,49,11,2,7.5,192.5,2,16,25,1,1,14,14,14,5,17
191017_1017,49,12,2,3,14,1,14,16,1,5.5,12,13,14,4,17
191017_1017,49,13,3,5.5,144.5,2,14,20,1,3,15,10,15,5,17
191017_1017,49,14,1,0,139.5,2,13,5,0,0,15,13,13,6,17
191017_1017,49,15,1,3,26,1,14,18,1,5.5,12,12,12,6,17
191017_1017,49,16,2,7,129,1,10,40,1,1.5,14,12,14,2,17
191017_1017,49,17,3,3,30,1,14,15,1,5.5,12,14,14,5,17
191017_1017,49,18,3,6.5,118.5,2,15,15,1,2,0,0,0,4,17
191017_1017,49,19,1,0,-18,1,13,1,0,0,14,14,13,3,17
191017_1017,49,20,1,6.5,110.5,2,15,18,1,2,14,14,14,7,17
191017_1017,49,21,1,5.5,100.5,2,14,18,1,3,11,13,14,3,17
191017_1017,49,22,1,0,-26,1,13,5,0,0,14,14,15,2,17
191017_1017,49,23,3,3,42,1,14,20,1,5.5,12,14,14,5,17
191017_1017,49,24,3,5.5,165,2,14,15,1,3,14,14,15,3,17
191017_1017,50,1,2,7,65,2,20,40,1,6,11,13,13,6,26
191017_1017,50,2,2,0,79,2,14,0,0,0,14,12,13,6,26
191017_1017,50,3,1,2,144.5,2,15,18,1,11,13,13,15,5,26
191017_1017,50,4,2,10,19,1,16,20,1,3,14,14,14,3,26
191017_1017,50,5,2,3,168,2,16,20,1,10,15,14,14,6,26
191017_1017,50,6,3,0,201.5,2,13,15,1,13,15,14,14,4,26
191017_1017,50,7,3,0,-7,1,20,16,0,0,10,13,14,5,26
191017_1017,50,8,1,8,87,1,18,18,1,5,15,14,13,6,26
191017_1017,50,9,2,0,-23,1,14,0,0,0,14,14,14,7,26
191017_1017,50,10,3,11,18,1,15,15,1,2,10,15,15,3,26
191017_1017,50,11,2,3,195.5,2,16,16,1,10,14,14,14,5,26
191017_1017,50,12,2,10,24,1,16,16,1,3,12,13,14,4,26
191017_1017,50,13,3,1,145.5,2,14,22,1,12,15,10,15,5,26
191017_1017,50,14,1,5,144.5,2,18,18,1,8,15,13,13,6,26
191017_1017,50,15,1,11,37,1,15,18,1,2,12,12,12,6,26
191017_1017,50,16,2,6,135,1,20,40,1,7,14,12,14,2,26
191017_1017,50,17,3,13,43,1,13,15,1,0,12,14,14,5,26
191017_1017,50,18,3,0,118.5,2,20,16,0,0,0,0,0,4,26
191017_1017,50,19,1,0,-18,1,17,1,0,0,14,14,13,3,26
191017_1017,50,20,1,0,110.5,2,17,1,0,0,14,14,14,7,26
191017_1017,50,21,1,0,100.5,2,19,5,0,0,11,13,14,3,26
191017_1017,50,22,1,0,-26,1,19,5,0,0,14,14,15,2,26
191017_1017,50,23,3,12,54,1,14,22,1,1,12,14,14,5,26
191017_1017,50,24,3,2,167,2,15,15,1,11,14,14,15,3,26
